WelcomeScreen.stopped,key_respWeiter.rt,slider.response,ThankYouScreen.stopped,CorrAns,frameRate,__participant,key_resp_2.rt,ShortQuiz.started,psychopyVersion,key_resp_2.keys,key_respWeitergehen.rt,Feedback.started,WelcomeScreen.started,date,ConfindentwithDecision.stopped,ShortQuiz.stopped,Zustimmung.rt,Symp,trialsZombies.thisN,trialsZombies.thisIndex,key_resp.rt,__datetime,ShortQuizQ2.started,Participant,blank500.stopped,ShortQuizQ1.started,ConfindentwithDecision.started,DiagnosisZombie.stopped,Zustimmung.keys,__session,InfoScreenWorld.stopped,OS,trialsZombies.thisRepN,DiagnosisZombie.started,ShortQuizQ1.stopped,blank500.started,session,key_respWeitergehen.keys,keySAntwortQ2.rt,InfoDiagnosisThemself.stopped,key_resp.keys,key_respWeiterDiagnosisthemself.rt,InfoDiagnosisThemself.started,key_resp_diagnosis.corr,keySAntwortQ2.keys,trialsZombies.thisTrialN,Feedback.stopped,key_respWeiterDiagnosisthemself.keys,key_resp_Feedback.rt,ShortQuizQ2.stopped,key_respWeiter.keys,ThankYouScreen.started,key_resp_diagnosis.keys,participant,__experimentName,expName,key_resp_Feedback.keys,InfoScreenDisease.started,CorrKey,InfoScreenDisease.stopped,trialsZombies.ran,key_resp_diagnosis.rt,images_zombie
9.837000000000003,NA,NA,NA,NA,60.02400960382895,696929,NA,NA,2023.2.2,NA,NA,NA,0.00100000000000477,2023-11-02_12h55.02.422,NA,NA,9.802,NA,NA,NA,NA,2023-11-02_12h54.07.504,NA,NA,NA,NA,NA,NA,space,001,NA,Win32,NA,NA,NA,NA,001,NA,NA,NA,NA,NA,NA,NA,NA,NA,NA,NA,NA,NA,NA,NA,NA,696929,Zombie_new,Zombie,NA,NA,NA,NA,NA,NA,NA
NA,NA,NA,NA,NA,60.02400960382895,696929,NA,NA,2023.2.2,NA,NA,NA,NA,2023-11-02_12h55.02.422,NA,NA,NA,NA,NA,NA,NA,2023-11-02_12h54.07.504,NA,NA,10.837000000000003,NA,NA,NA,NA,001,NA,Win32,NA,NA,NA,9.837000000000003,001,NA,NA,NA,NA,NA,NA,NA,NA,NA,NA,NA,NA,NA,NA,NA,NA,696929,Zombie_new,Zombie,NA,NA,NA,NA,NA,NA,NA
NA,NA,NA,NA,NA,60.02400960382895,696929,NA,NA,2023.2.2,NA,99.154,NA,NA,2023-11-02_12h55.02.422,NA,NA,NA,NA,NA,NA,NA,2023-11-02_12h54.07.504,NA,NA,NA,NA,NA,NA,NA,001,110.021,Win32,NA,NA,NA,NA,001,space,NA,NA,NA,NA,NA,NA,NA,NA,NA,NA,NA,NA,NA,NA,NA,696929,Zombie_new,Zombie,NA,NA,NA,NA,NA,NA,NA
NA,76.37,NA,NA,NA,60.02400960382895,696929,NA,NA,2023.2.2,NA,NA,NA,NA,2023-11-02_12h55.02.422,NA,NA,NA,NA,NA,NA,NA,2023-11-02_12h54.07.504,NA,NA,NA,NA,NA,NA,NA,001,NA,Win32,NA,NA,NA,NA,001,NA,NA,NA,NA,NA,NA,NA,NA,NA,NA,NA,NA,NA,space,NA,NA,696929,Zombie_new,Zombie,NA,110.021,NA,186.42200000000005,NA,NA,NA
NA,NA,NA,NA,NA,60.02400960382895,696929,NA,186.42200000000005,2023.2.2,NA,NA,NA,NA,2023-11-02_12h55.02.422,NA,192.605,NA,NA,NA,NA,6.150000000000006,2023-11-02_12h54.07.504,NA,NA,NA,NA,NA,NA,NA,001,NA,Win32,NA,NA,NA,NA,001,NA,NA,NA,s,NA,NA,NA,NA,NA,NA,NA,NA,NA,NA,NA,NA,696929,Zombie_new,Zombie,NA,NA,NA,NA,NA,NA,NA
NA,NA,NA,NA,NA,60.02400960382895,696929,6.913999999999987,NA,2023.2.2,z,NA,NA,NA,2023-11-02_12h55.02.422,NA,NA,NA,NA,NA,NA,NA,2023-11-02_12h54.07.504,NA,NA,NA,192.605,NA,NA,NA,001,NA,Win32,NA,NA,199.537,NA,001,NA,NA,NA,NA,NA,NA,NA,NA,NA,NA,NA,NA,NA,NA,NA,NA,696929,Zombie_new,Zombie,NA,NA,NA,NA,NA,NA,NA
NA,NA,NA,NA,NA,60.02400960382895,696929,NA,NA,2023.2.2,NA,NA,NA,NA,2023-11-02_12h55.02.422,NA,NA,NA,NA,NA,NA,NA,2023-11-02_12h54.07.504,199.538,NA,NA,NA,NA,NA,NA,001,NA,Win32,NA,NA,NA,NA,001,NA,4.932999999999964,NA,NA,NA,NA,NA,d,NA,NA,NA,NA,204.50399999999996,NA,NA,NA,696929,Zombie_new,Zombie,NA,NA,NA,NA,NA,NA,NA
NA,NA,NA,NA,NA,60.02400960382895,696929,NA,NA,2023.2.2,NA,NA,NA,NA,2023-11-02_12h55.02.422,NA,NA,NA,NA,NA,NA,NA,2023-11-02_12h54.07.504,NA,NA,NA,NA,NA,NA,NA,001,NA,Win32,NA,NA,NA,NA,001,NA,NA,235.488,NA,30.95999999999998,204.50399999999996,NA,NA,NA,NA,space,NA,NA,NA,NA,NA,696929,Zombie_new,Zombie,NA,NA,NA,NA,NA,NA,NA
NA,NA,33,NA,keine schwere Krankheit,60.02400960382895,696929,NA,NA,2023.2.2,NA,NA,272.772,NA,2023-11-02_12h55.02.422,272.772,NA,NA,"Juckreiz,Verstopfung",0,51,NA,2023-11-02_12h54.07.504,NA,54,NA,NA,263.606,263.60499999999996,NA,001,NA,Win32,0,235.502,NA,NA,001,NA,NA,NA,NA,NA,NA,0,NA,0,282.872,NA,10.089,NA,NA,NA,t,696929,Zombie_new,Zombie,space,NA,g,NA,1,27.593000000000018,images/zombie48.png
NA,NA,34,NA,keine schwere Krankheit,60.02400960382895,696929,NA,NA,2023.2.2,NA,NA,290.655,NA,2023-11-02_12h55.02.422,290.655,NA,NA,Tränende Augen,1,57,NA,2023-11-02_12h54.07.504,NA,60,NA,NA,287.989,287.989,NA,001,NA,Win32,0,282.873,NA,NA,001,NA,NA,NA,NA,NA,NA,0,NA,1,296.622,NA,5.953000000000031,NA,NA,NA,t,696929,Zombie_new,Zombie,space,NA,g,NA,1,4.604000000000042,images/zombie15.png
NA,NA,34,NA,keine schwere Krankheit,60.02400960382895,696929,NA,NA,2023.2.2,NA,NA,314.10499999999996,NA,2023-11-02_12h55.02.422,314.10499999999996,NA,NA,"Juckreiz,Verstopfung",2,50,NA,2023-11-02_12h54.07.504,NA,53,NA,NA,308.772,308.772,NA,001,NA,Win32,0,296.622,NA,NA,001,NA,NA,NA,NA,NA,NA,1,NA,2,318.27299999999997,NA,4.156000000000006,NA,NA,NA,g,696929,Zombie_new,Zombie,space,NA,g,NA,1,11.637999999999977,images/zombie34.png
NA,NA,33,NA,TS19,60.02400960382895,696929,NA,NA,2023.2.2,NA,NA,324.656,NA,2023-11-02_12h55.02.422,324.656,NA,NA,"Fieber, Gehirnhautentzündung, Geschwollene Drüsen, Hautausschlag",3,1,NA,2023-11-02_12h54.07.504,NA,4,NA,NA,322.239,322.239,NA,001,NA,Win32,0,318.27299999999997,NA,NA,001,NA,NA,NA,NA,NA,NA,1,NA,3,332.589,NA,7.925000000000011,NA,NA,NA,t,696929,Zombie_new,Zombie,space,NA,t,NA,1,3.4499999999999886,images/zombie19.png
NA,NA,33,NA,TS19,60.02400960382895,696929,NA,NA,2023.2.2,NA,NA,340.039,NA,2023-11-02_12h55.02.422,340.039,NA,NA,"Abszess, Fieber, Juckreiz, Tränende Augen",4,2,NA,2023-11-02_12h54.07.504,NA,5,NA,NA,338.722,338.722,NA,001,NA,Win32,0,332.589,NA,NA,001,NA,NA,NA,NA,NA,NA,1,NA,4,342.673,NA,2.6230000000000473,NA,NA,NA,t,696929,Zombie_new,Zombie,space,NA,t,NA,1,5.6299999999999955,images/zombie27.png
NA,NA,34,NA,MZD,60.02400960382895,696929,NA,NA,2023.2.2,NA,NA,347.989,NA,2023-11-02_12h55.02.422,347.989,NA,NA,"Abszess, Gehirnhautentzündung, Juckreiz, Tränende Augen",5,26,NA,2023-11-02_12h54.07.504,NA,29,NA,NA,346.68899999999996,346.68899999999996,NA,001,NA,Win32,0,342.673,NA,NA,001,NA,NA,NA,NA,NA,NA,0,NA,5,349.122,NA,1.1289999999999625,NA,NA,NA,t,696929,Zombie_new,Zombie,space,NA,m,NA,1,3.497000000000014,images/zombie50.png
NA,NA,35,NA,MZD,60.02400960382895,696929,NA,NA,2023.2.2,NA,NA,352.322,NA,2023-11-02_12h55.02.422,352.322,NA,NA,"Abszess, Fieber, Juckreiz, Tränende Augen",6,34,NA,2023-11-02_12h54.07.504,NA,37,NA,NA,351.407,351.407,NA,001,NA,Win32,0,349.123,NA,NA,001,NA,NA,NA,NA,NA,NA,0,NA,6,352.839,NA,0.5029999999999859,NA,NA,NA,t,696929,Zombie_new,Zombie,space,NA,m,NA,1,1.7549999999999957,images/zombie43.png
NA,NA,35,NA,MZD,60.02400960382895,696929,NA,NA,2023.2.2,NA,NA,354.255,NA,2023-11-02_12h55.02.422,354.255,NA,NA,"Abszess, Gehirnhautentzündung, Juckreiz",7,24,NA,2023-11-02_12h54.07.504,NA,27,NA,NA,353.43899999999996,353.43899999999996,NA,001,NA,Win32,0,352.839,NA,NA,001,NA,NA,NA,NA,NA,NA,0,NA,7,354.77299999999997,NA,0.5029999999999859,NA,NA,NA,t,696929,Zombie_new,Zombie,space,NA,m,NA,1,0.09699999999998,images/zombie41.png
NA,NA,35,NA,keine schwere Krankheit,60.02400960382895,696929,NA,NA,2023.2.2,NA,NA,356.539,NA,2023-11-02_12h55.02.422,356.539,NA,NA,"Abszess, Fieber, Hautausschlag",8,38,NA,2023-11-02_12h54.07.504,NA,41,NA,NA,355.889,355.889,NA,001,NA,Win32,0,354.77299999999997,NA,NA,001,NA,NA,NA,NA,NA,NA,0,NA,8,356.839,NA,0.2980000000000018,NA,NA,NA,t,696929,Zombie_new,Zombie,space,NA,g,NA,1,0.5980000000000132,images/zombie5.png
NA,NA,35,NA,TS19,60.02400960382895,696929,NA,NA,2023.2.2,NA,NA,358.756,NA,2023-11-02_12h55.02.422,358.756,NA,NA,"Abszess, Fieber, Hautausschlag, Verstopfung",9,0,NA,2023-11-02_12h54.07.504,NA,3,NA,NA,357.705,357.705,NA,001,NA,Win32,0,356.839,NA,NA,001,NA,NA,NA,NA,NA,NA,1,NA,9,359.989,NA,1.2210000000000036,NA,NA,NA,t,696929,Zombie_new,Zombie,space,NA,t,NA,1,0.35599999999999454,images/zombie45.png
NA,NA,35,NA,TS19,60.02400960382895,696929,NA,NA,2023.2.2,NA,NA,363.656,NA,2023-11-02_12h55.02.422,363.656,NA,NA,"Abszess, Gehirnhautentzündung, Tränende Augen",10,16,NA,2023-11-02_12h54.07.504,NA,19,NA,NA,362.822,362.822,NA,001,NA,Win32,0,359.989,NA,NA,001,NA,NA,NA,NA,NA,NA,1,NA,10,364.473,NA,0.8059999999999832,NA,NA,NA,t,696929,Zombie_new,Zombie,space,NA,t,NA,1,2.309000000000026,images/zombie53.png
NA,NA,35,NA,MZD,60.02400960382895,696929,NA,NA,2023.2.2,NA,NA,366.672,NA,2023-11-02_12h55.02.422,366.672,NA,NA,"Abszess, Fieber, Gehirnhautentzündung, Juckreiz",11,22,NA,2023-11-02_12h54.07.504,NA,25,NA,NA,365.872,365.872,NA,001,NA,Win32,0,364.473,NA,NA,001,NA,NA,NA,NA,NA,NA,0,NA,11,367.939,NA,1.2549999999999957,NA,NA,NA,t,696929,Zombie_new,Zombie,space,NA,m,NA,1,0.8949999999999818,images/zombie58.png
NA,NA,34,NA,MZD,60.02400960382895,696929,NA,NA,2023.2.2,NA,NA,369.473,NA,2023-11-02_12h55.02.422,369.473,NA,NA,"Abszess, Gehirnhautentzündung, Juckreiz, Tränende Augen",12,27,NA,2023-11-02_12h54.07.504,NA,30,NA,NA,368.989,368.989,NA,001,NA,Win32,0,367.939,NA,NA,001,NA,NA,NA,NA,NA,NA,0,NA,12,369.989,NA,0.5039999999999623,NA,NA,NA,t,696929,Zombie_new,Zombie,space,NA,m,NA,1,0.5440000000000396,images/zombie35.png
NA,NA,34,NA,MZD,60.02400960382895,696929,NA,NA,2023.2.2,NA,NA,371.373,NA,2023-11-02_12h55.02.422,371.372,NA,NA,"Gehirnhautentzündung, Juckreiz",13,31,NA,2023-11-02_12h54.07.504,NA,34,NA,NA,370.906,370.906,NA,001,NA,Win32,0,369.99,NA,NA,001,NA,NA,NA,NA,NA,NA,0,NA,13,371.589,NA,0.20400000000000773,NA,NA,NA,t,696929,Zombie_new,Zombie,space,NA,m,NA,1,0.396000000000015,images/zombie2.png
NA,NA,34,NA,keine schwere Krankheit,60.02400960382895,696929,NA,NA,2023.2.2,NA,NA,373.473,NA,2023-11-02_12h55.02.422,373.473,NA,NA,"Abszess, Geschwollene Drüsen, Juckreiz",14,48,NA,2023-11-02_12h54.07.504,NA,51,NA,NA,373.023,373.023,NA,001,NA,Win32,0,371.59,NA,NA,001,NA,NA,NA,NA,NA,NA,0,NA,14,373.706,NA,0.22199999999998,NA,NA,NA,t,696929,Zombie_new,Zombie,space,NA,g,NA,1,0.9159999999999968,images/zombie21.png
NA,NA,34,NA,MZD,60.02400960382895,696929,NA,NA,2023.2.2,NA,NA,374.806,NA,2023-11-02_12h55.02.422,374.806,NA,NA,"Abszess, Gehirnhautentzündung, Hautausschlag, Juckreiz",15,30,NA,2023-11-02_12h54.07.504,NA,33,NA,NA,374.389,374.389,NA,001,NA,Win32,0,373.706,NA,NA,001,NA,NA,NA,NA,NA,NA,0,NA,15,375.039,NA,0.2230000000000132,NA,NA,NA,t,696929,Zombie_new,Zombie,space,NA,m,NA,1,0.17600000000004457,images/zombie10.png
NA,NA,34,NA,TS19,60.02400960382895,696929,NA,NA,2023.2.2,NA,NA,376.456,NA,2023-11-02_12h55.02.422,376.456,NA,NA,"Fieber, Juckreiz,Tränende Augen",16,3,NA,2023-11-02_12h54.07.504,NA,6,NA,NA,375.973,375.973,NA,001,NA,Win32,0,375.039,NA,NA,001,NA,NA,NA,NA,NA,NA,1,NA,16,376.639,NA,0.17399999999997817,NA,NA,NA,t,696929,Zombie_new,Zombie,space,NA,t,NA,1,0.42200000000002547,images/zombie16.png
NA,NA,34,NA,TS19,60.02400960382895,696929,NA,NA,2023.2.2,NA,NA,377.989,NA,2023-11-02_12h55.02.422,377.989,NA,NA,"Abszess, Fieber, Geschwollene Drüsen, Tränende Augen",17,7,NA,2023-11-02_12h54.07.504,NA,10,NA,NA,377.556,377.556,NA,001,NA,Win32,0,376.64,NA,NA,001,NA,NA,NA,NA,NA,NA,1,NA,17,378.206,NA,0.20799999999997,NA,NA,NA,t,696929,Zombie_new,Zombie,space,NA,t,NA,1,0.3889999999999531,images/zombie17.png
NA,NA,34,NA,MZD,60.02400960382895,696929,NA,NA,2023.2.2,NA,NA,379.289,NA,2023-11-02_12h55.02.422,379.289,NA,NA,"Gehirnhautentzündung, Juckreiz, Verstopfung",18,33,NA,2023-11-02_12h54.07.504,NA,36,NA,NA,378.923,378.923,NA,001,NA,Win32,0,378.206,NA,NA,001,NA,NA,NA,NA,NA,NA,0,NA,18,379.489,NA,0.18900000000002137,NA,NA,NA,t,696929,Zombie_new,Zombie,space,NA,m,NA,1,0.20600000000001728,images/zombie37.png
NA,NA,34,NA,MZD,60.02400960382895,696929,NA,NA,2023.2.2,NA,NA,380.473,NA,2023-11-02_12h55.02.422,380.473,NA,NA,"Abszess, Fieber, Gehirnhautentzündung, Hautausschlag",19,18,NA,2023-11-02_12h54.07.504,NA,21,NA,NA,380.072,380.072,NA,001,NA,Win32,0,379.489,NA,NA,001,NA,NA,NA,NA,NA,NA,0,NA,19,380.639,NA,0.16399999999998727,NA,NA,NA,t,696929,Zombie_new,Zombie,space,NA,m,NA,1,0.08100000000001728,images/zombie59.png
NA,NA,34,NA,keine schwere Krankheit,60.02400960382895,696929,NA,NA,2023.2.2,NA,NA,383.589,NA,2023-11-02_12h55.02.422,383.589,NA,NA,"Gehirnhautentzündung, Hautausschlag",20,47,NA,2023-11-02_12h54.07.504,NA,50,NA,NA,382.856,382.856,NA,001,NA,Win32,0,380.639,NA,NA,001,NA,NA,NA,NA,NA,NA,0,NA,20,387.439,NA,3.843999999999994,NA,NA,NA,m,696929,Zombie_new,Zombie,space,NA,g,NA,1,1.7069999999999936,images/zombie49.png
NA,NA,34,NA,keine schwere Krankheit,60.02400960382895,696929,NA,NA,2023.2.2,NA,NA,392.173,NA,2023-11-02_12h55.02.422,392.173,NA,NA,"Geschwollene Drüsen, Tränende Augen",21,56,NA,2023-11-02_12h54.07.504,NA,59,NA,NA,390.04,390.04,NA,001,NA,Win32,0,387.44,NA,NA,001,NA,NA,NA,NA,NA,NA,1,NA,21,392.706,NA,0.521000000000015,NA,NA,NA,g,696929,Zombie_new,Zombie,space,NA,g,NA,1,2.0710000000000264,images/zombie38.png
NA,NA,34,NA,keine schwere Krankheit,60.02400960382895,696929,NA,NA,2023.2.2,NA,NA,396.739,NA,2023-11-02_12h55.02.422,396.739,NA,NA,"Gehirnhautentzündung,Geschwollene Drüsen",22,44,NA,2023-11-02_12h54.07.504,NA,47,NA,NA,394.873,394.873,NA,001,NA,Win32,0,392.707,NA,NA,001,NA,NA,NA,NA,NA,NA,0,NA,22,398.123,NA,1.3789999999999625,NA,NA,NA,t,696929,Zombie_new,Zombie,space,NA,g,NA,1,1.6479999999999675,images/zombie47.png
NA,NA,34,NA,TS19,60.02400960382895,696929,NA,NA,2023.2.2,NA,NA,401.223,NA,2023-11-02_12h55.02.422,401.223,NA,NA,"Abszess, Fieber, Gehirnhautentzündung, Tränende Augen",23,4,NA,2023-11-02_12h54.07.504,NA,7,NA,NA,400.206,400.206,NA,001,NA,Win32,0,398.123,NA,NA,001,NA,NA,NA,NA,NA,NA,1,NA,23,401.372,NA,0.1360000000000241,NA,NA,NA,t,696929,Zombie_new,Zombie,space,NA,t,NA,1,1.5760000000000218,images/zombie20.png
NA,NA,34,NA,TS19,60.02400960382895,696929,NA,NA,2023.2.2,NA,NA,402.556,NA,2023-11-02_12h55.02.422,402.556,NA,NA,"Abszess, Fieber, Tränende Augen",24,9,NA,2023-11-02_12h54.07.504,NA,12,NA,NA,402.04,402.039,NA,001,NA,Win32,0,401.373,NA,NA,001,NA,NA,NA,NA,NA,NA,1,NA,24,402.739,NA,0.17700000000002092,NA,NA,NA,t,696929,Zombie_new,Zombie,space,NA,t,NA,1,0.15499999999997272,images/zombie6.png
NA,NA,34,NA,keine schwere Krankheit,60.02400960382895,696929,NA,NA,2023.2.2,NA,NA,403.889,NA,2023-11-02_12h55.02.422,403.889,NA,NA,"Fieber, Hautausschlag",25,42,NA,2023-11-02_12h54.07.504,NA,45,NA,NA,403.439,403.439,NA,001,NA,Win32,0,402.74,NA,NA,001,NA,NA,NA,NA,NA,NA,0,NA,25,404.023,NA,0.132000000000005,NA,NA,NA,t,696929,Zombie_new,Zombie,space,NA,g,NA,1,0.18299999999999272,images/zombie12.png
NA,NA,34,NA,MZD,60.02400960382895,696929,NA,NA,2023.2.2,NA,NA,405.189,NA,2023-11-02_12h55.02.422,405.189,NA,NA,"Gehirnhautentzündung, Hautausschlag",26,21,NA,2023-11-02_12h54.07.504,NA,24,NA,NA,404.789,404.789,NA,001,NA,Win32,0,404.023,NA,NA,001,NA,NA,NA,NA,NA,NA,0,NA,26,405.372,NA,0.17099999999999227,NA,NA,NA,t,696929,Zombie_new,Zombie,space,NA,m,NA,1,0.24300000000005184,images/zombie28.png
NA,NA,34,NA,MZD,60.02400960382895,696929,NA,NA,2023.2.2,NA,NA,406.455,NA,2023-11-02_12h55.02.422,406.455,NA,NA,"Gehirnhautentzündung, Geschwollene Drüsen, Juckreiz",27,32,NA,2023-11-02_12h54.07.504,NA,35,NA,NA,406.073,406.073,NA,001,NA,Win32,0,405.372,NA,NA,001,NA,NA,NA,NA,NA,NA,0,NA,27,406.606,NA,0.14200000000005275,NA,NA,NA,t,696929,Zombie_new,Zombie,space,NA,m,NA,1,0.19700000000000273,images/zombie57.png
NA,NA,34,NA,TS19,60.02400960382895,696929,NA,NA,2023.2.2,NA,NA,407.772,NA,2023-11-02_12h55.02.422,407.772,NA,NA,"Abszess, Fieber, Tränende Augen",28,10,NA,2023-11-02_12h54.07.504,NA,13,NA,NA,407.339,407.339,NA,001,NA,Win32,0,406.606,NA,NA,001,NA,NA,NA,NA,NA,NA,1,NA,28,407.939,NA,0.16100000000000136,NA,NA,NA,t,696929,Zombie_new,Zombie,space,NA,t,NA,1,0.228999999999985,images/zombie9.png
NA,NA,34,NA,keine schwere Krankheit,60.02400960382895,696929,NA,NA,2023.2.2,NA,NA,408.939,NA,2023-11-02_12h55.02.422,408.939,NA,NA,"Geschwollene Drüsen, Tränende Augen",29,54,NA,2023-11-02_12h54.07.504,NA,57,NA,NA,408.539,408.539,NA,001,NA,Win32,0,407.939,NA,NA,001,NA,NA,NA,NA,NA,NA,0,NA,29,409.106,NA,0.16199999999997772,NA,NA,NA,t,696929,Zombie_new,Zombie,space,NA,g,NA,1,0.08899999999999864,images/zombie25.png
NA,NA,34,NA,MZD,60.02400960382895,696929,NA,NA,2023.2.2,NA,NA,410.105,NA,2023-11-02_12h55.02.422,410.105,NA,NA,"Abszess, Gehirnhautentzündung, Juckreiz",30,28,NA,2023-11-02_12h54.07.504,NA,31,NA,NA,409.622,409.622,NA,001,NA,Win32,0,409.106,NA,NA,001,NA,NA,NA,NA,NA,NA,0,NA,30,410.356,NA,0.24399999999997135,NA,NA,NA,t,696929,Zombie_new,Zombie,space,NA,m,NA,1,0.00400000000001909,images/zombie18.png
NA,NA,34,NA,MZD,60.02400960382895,696929,NA,NA,2023.2.2,NA,NA,411.339,NA,2023-11-02_12h55.02.422,411.339,NA,NA,"Abszess, Juckreiz, Verstopfung",31,35,NA,2023-11-02_12h54.07.504,NA,38,NA,NA,410.956,410.956,NA,001,NA,Win32,0,410.357,NA,NA,001,NA,NA,NA,NA,NA,NA,0,NA,31,411.506,NA,0.16200000000003456,NA,NA,NA,t,696929,Zombie_new,Zombie,space,NA,m,NA,1,0.07099999999996953,images/zombie39.png
NA,NA,34,NA,TS19,60.02400960382895,696929,NA,NA,2023.2.2,NA,NA,412.372,NA,2023-11-02_12h55.02.422,412.372,NA,NA,"Abszess, Fieber, Verstopfung,Tränende Augen",32,12,NA,2023-11-02_12h54.07.504,NA,15,NA,NA,412.123,412.123,NA,001,NA,Win32,0,411.506,NA,NA,001,NA,NA,NA,NA,NA,NA,1,NA,32,412.556,NA,0.17000000000001592,NA,NA,NA,t,696929,Zombie_new,Zombie,space,NA,t,NA,1,0.1050000000000182,images/zombie40.png
NA,NA,34,NA,TS19,60.02400960382895,696929,NA,NA,2023.2.2,NA,NA,413.506,NA,2023-11-02_12h55.02.422,413.506,NA,NA,"Fieber, Gehirnhautentzündung, Tränende Augen",33,5,NA,2023-11-02_12h54.07.504,NA,8,NA,NA,413.206,413.206,NA,001,NA,Win32,0,412.556,NA,NA,001,NA,NA,NA,NA,NA,NA,1,NA,33,413.656,NA,0.13900000000001,NA,NA,NA,t,696929,Zombie_new,Zombie,space,NA,t,NA,1,0.12299999999999044,images/zombie26.png
NA,NA,34,NA,keine schwere Krankheit,60.02400960382895,696929,NA,NA,2023.2.2,NA,NA,414.573,NA,2023-11-02_12h55.02.422,414.573,NA,NA,"Abszess, Gehirnhautentzündung",34,43,NA,2023-11-02_12h54.07.504,NA,46,NA,NA,414.272,414.272,NA,001,NA,Win32,0,413.657,NA,NA,001,NA,NA,NA,NA,NA,NA,0,NA,34,414.74,NA,0.15399999999999636,NA,NA,NA,t,696929,Zombie_new,Zombie,space,NA,g,NA,1,0.0980000000000132,images/zombie11.png
NA,NA,34,NA,keine schwere Krankheit,60.02400960382895,696929,NA,NA,2023.2.2,NA,NA,415.722,NA,2023-11-02_12h55.02.422,415.722,NA,NA,"Juckreiz,Verstopfung",35,49,NA,2023-11-02_12h54.07.504,NA,52,NA,NA,415.39,415.39,NA,001,NA,Win32,0,414.74,NA,NA,001,NA,NA,NA,NA,NA,NA,0,NA,35,415.856,NA,0.1309999999999718,NA,NA,NA,t,696929,Zombie_new,Zombie,space,NA,g,NA,1,0.1260000000000332,images/zombie33.png
NA,NA,34,NA,MZD,60.02400960382895,696929,NA,NA,2023.2.2,NA,NA,416.806,NA,2023-11-02_12h55.02.422,416.806,NA,NA,"Abszess, Gehirnhautentzündung, Juckreiz",36,29,NA,2023-11-02_12h54.07.504,NA,32,NA,NA,416.49,416.49,NA,001,NA,Win32,0,415.856,NA,NA,001,NA,NA,NA,NA,NA,NA,0,NA,36,416.906,NA,0.09600000000000364,NA,NA,NA,t,696929,Zombie_new,Zombie,space,NA,m,NA,1,0.12999999999999545,images/zombie56.png
NA,NA,34,NA,MZD,60.02400960382895,696929,NA,NA,2023.2.2,NA,NA,417.889,NA,2023-11-02_12h55.02.422,417.889,NA,NA,"Abszess, Juckreiz",37,36,NA,2023-11-02_12h54.07.504,NA,39,NA,NA,417.574,417.573,NA,001,NA,Win32,0,416.907,NA,NA,001,NA,NA,NA,NA,NA,NA,0,NA,37,418.006,NA,0.10800000000000408,NA,NA,NA,t,696929,Zombie_new,Zombie,space,NA,m,NA,1,0.1379999999999768,images/zombie24.png
NA,NA,34,NA,TS19,60.02400960382895,696929,NA,NA,2023.2.2,NA,NA,418.939,NA,2023-11-02_12h55.02.422,418.939,NA,NA,"Abszess, Juckreiz,Verstopfung,Tränende Augen",38,14,NA,2023-11-02_12h54.07.504,NA,17,NA,NA,418.639,418.639,NA,001,NA,Win32,0,418.006,NA,NA,001,NA,NA,NA,NA,NA,NA,1,NA,38,419.022,NA,0.08199999999999363,NA,NA,NA,t,696929,Zombie_new,Zombie,space,NA,t,NA,1,0.132000000000005,images/zombie23.png
NA,NA,34,NA,TS19,60.02400960382895,696929,NA,NA,2023.2.2,NA,NA,419.823,NA,2023-11-02_12h55.02.422,419.823,NA,NA,"Abszess, Geschwollene Drüsen, Tränende Augen",39,15,NA,2023-11-02_12h54.07.504,NA,18,NA,NA,419.572,419.572,NA,001,NA,Win32,0,419.023,NA,NA,001,NA,NA,NA,NA,NA,NA,1,NA,39,419.99,NA,0.160000000000025,NA,NA,NA,t,696929,Zombie_new,Zombie,space,NA,t,NA,1,0.02699999999998681,images/zombie3.png
NA,NA,34,NA,MZD,60.02400960382895,696929,NA,NA,2023.2.2,NA,NA,420.839,NA,2023-11-02_12h55.02.422,420.839,NA,NA,"Abszess, Gehirnhautentzündung,Geschwollene Drüsen, Verstopfung",40,20,NA,2023-11-02_12h54.07.504,NA,23,NA,NA,420.557,420.556,NA,001,NA,Win32,0,419.99,NA,NA,001,NA,NA,NA,NA,NA,NA,0,NA,40,420.923,NA,0.07800000000003138,NA,NA,NA,t,696929,Zombie_new,Zombie,space,NA,m,NA,1,0.03899999999998727,images/zombie22.png
NA,NA,34,NA,TS19,60.02400960382895,696929,NA,NA,2023.2.2,NA,NA,421.789,NA,2023-11-02_12h55.02.422,421.789,NA,NA,"Fieber, Hautausschlag, Tränende Augen",41,11,NA,2023-11-02_12h54.07.504,NA,14,NA,NA,421.506,421.506,NA,001,NA,Win32,0,420.923,NA,NA,001,NA,NA,NA,NA,NA,NA,1,NA,41,421.889,NA,0.08800000000002228,NA,NA,NA,t,696929,Zombie_new,Zombie,space,NA,t,NA,1,0.07099999999996953,images/zombie1.png
NA,NA,34,NA,TS19,60.02400960382895,696929,NA,NA,2023.2.2,NA,NA,422.756,NA,2023-11-02_12h55.02.422,422.756,NA,NA,"Fieber, Tränende Augen",42,13,NA,2023-11-02_12h54.07.504,NA,16,NA,NA,422.506,422.506,NA,001,NA,Win32,0,421.89,NA,NA,001,NA,NA,NA,NA,NA,NA,1,NA,42,422.906,NA,0.146000000000015,NA,NA,NA,t,696929,Zombie_new,Zombie,space,NA,t,NA,1,0.08899999999999864,images/zombie42.png
NA,NA,34,NA,keine schwere Krankheit,60.02400960382895,696929,NA,NA,2023.2.2,NA,NA,423.806,NA,2023-11-02_12h55.02.422,423.806,NA,NA,"Fieber, Hautausschlag",43,41,NA,2023-11-02_12h54.07.504,NA,44,NA,NA,423.522,423.522,NA,001,NA,Win32,0,422.906,NA,NA,001,NA,NA,NA,NA,NA,NA,0,NA,43,423.939,NA,0.12800000000004275,NA,NA,NA,t,696929,Zombie_new,Zombie,space,NA,g,NA,1,0.10599999999999454,images/zombie14.png
NA,NA,34,NA,keine schwere Krankheit,60.02400960382895,696929,NA,NA,2023.2.2,NA,NA,482.424,NA,2023-11-02_12h55.02.422,482.424,NA,NA,"Gehirnhautentzündung, Hautausschlag",44,46,NA,2023-11-02_12h54.07.504,NA,49,NA,NA,481.04,481.04,NA,001,NA,Win32,0,423.939,NA,NA,001,NA,NA,NA,NA,NA,NA,0,NA,44,482.623,NA,0.18600000000003547,NA,NA,NA,t,696929,Zombie_new,Zombie,space,NA,g,NA,1,56.59100000000001,images/zombie60.png
NA,NA,34,NA,MZD,60.02400960382895,696929,NA,NA,2023.2.2,NA,NA,485.406,NA,2023-11-02_12h55.02.422,485.406,NA,NA,"Fieber, Gehirnhautentzündung, Juckreiz, Verstopfung",45,23,NA,2023-11-02_12h54.07.504,NA,26,NA,NA,483.223,483.223,NA,001,NA,Win32,0,482.6240000000001,NA,NA,001,NA,NA,NA,NA,NA,NA,0,NA,45,485.64,NA,0.22199999999998,NA,NA,NA,t,696929,Zombie_new,Zombie,space,NA,m,NA,1,0.07399999999995543,images/zombie51.png
NA,NA,34,NA,keine schwere Krankheit,60.02400960382895,696929,NA,NA,2023.2.2,NA,NA,486.7060000000001,NA,2023-11-02_12h55.02.422,486.7060000000001,NA,NA,"Abszess, Fieber",46,39,NA,2023-11-02_12h54.07.504,NA,42,NA,NA,486.2780000000001,486.2780000000001,NA,001,NA,Win32,0,485.641,NA,NA,001,NA,NA,NA,NA,NA,NA,0,NA,46,486.8560000000001,NA,0.1470000000000482,NA,NA,NA,t,696929,Zombie_new,Zombie,space,NA,g,NA,1,0.12200000000007094,images/zombie55.png
NA,NA,34,NA,keine schwere Krankheit,60.02400960382895,696929,NA,NA,2023.2.2,NA,NA,488.0230000000001,NA,2023-11-02_12h55.02.422,488.0230000000001,NA,NA,"Fieber, Geschwollene Drüsen",47,40,NA,2023-11-02_12h54.07.504,NA,43,NA,NA,487.4570000000001,487.4560000000001,NA,001,NA,Win32,0,486.8560000000001,NA,NA,001,NA,NA,NA,NA,NA,NA,0,NA,47,488.14,NA,0.11000000000001364,NA,NA,NA,t,696929,Zombie_new,Zombie,space,NA,g,NA,1,0.09800000000007004,images/zombie52.png
NA,NA,34,NA,TS19,60.02400960382895,696929,NA,NA,2023.2.2,NA,NA,489.123,NA,2023-11-02_12h55.02.422,489.123,NA,NA,"Verstopfung, Tränende Augen",48,17,NA,2023-11-02_12h54.07.504,NA,20,NA,NA,488.74000000000007,488.74000000000007,NA,001,NA,Win32,0,488.14,NA,NA,001,NA,NA,NA,NA,NA,NA,1,NA,48,489.2730000000001,NA,0.14599999999995816,NA,NA,NA,t,696929,Zombie_new,Zombie,space,NA,t,NA,1,0.09500000000002728,images/zombie32.png
NA,NA,34,NA,keine schwere Krankheit,60.02400960382895,696929,NA,NA,2023.2.2,NA,NA,490.324,NA,2023-11-02_12h55.02.422,490.324,NA,NA,"Abszess, Tränende Augen",49,53,NA,2023-11-02_12h54.07.504,NA,56,NA,NA,489.89,489.89,NA,001,NA,Win32,0,489.2730000000001,NA,NA,001,NA,NA,NA,NA,NA,NA,0,NA,49,490.4560000000001,NA,0.1290000000000191,NA,NA,NA,t,696929,Zombie_new,Zombie,space,NA,g,NA,1,0.1050000000000182,images/zombie30.png
NA,NA,34,NA,TS19,60.02400960382895,696929,NA,NA,2023.2.2,NA,NA,491.473,NA,2023-11-02_12h55.02.422,491.473,NA,NA,"Abszess, Fieber, Geschwollene Drüsen, Tränende Augen",50,6,NA,2023-11-02_12h54.07.504,NA,9,NA,NA,491.073,491.073,NA,001,NA,Win32,0,490.4560000000001,NA,NA,001,NA,NA,NA,NA,NA,NA,1,NA,50,491.6060000000001,NA,0.12000000000000456,NA,NA,NA,t,696929,Zombie_new,Zombie,space,NA,t,NA,1,0.1050000000000182,images/zombie44.png
NA,NA,34,NA,MZD,60.02400960382895,696929,NA,NA,2023.2.2,NA,NA,492.5560000000001,NA,2023-11-02_12h55.02.422,492.5560000000001,NA,NA,"Abszess, Geschwollene Drüsen, Juckreiz",51,37,NA,2023-11-02_12h54.07.504,NA,40,NA,NA,492.17300000000006,492.17300000000006,NA,001,NA,Win32,0,491.6060000000001,NA,NA,001,NA,NA,NA,NA,NA,NA,0,NA,51,492.689,NA,0.1290000000000191,NA,NA,NA,t,696929,Zombie_new,Zombie,space,NA,m,NA,1,0.05999999999994543,images/zombie7.png
NA,NA,34,NA,MZD,60.02400960382895,696929,NA,NA,2023.2.2,NA,NA,493.67300000000006,NA,2023-11-02_12h55.02.422,493.67300000000006,NA,NA,"Gehirnhautentzündung, Geschwollene Drüsen, Hautausschlag, Juckreiz",52,25,NA,2023-11-02_12h54.07.504,NA,28,NA,NA,493.29,493.29,NA,001,NA,Win32,0,492.6910000000001,NA,NA,001,NA,NA,NA,NA,NA,NA,0,NA,52,493.8060000000001,NA,0.1209999999999809,NA,NA,NA,t,696929,Zombie_new,Zombie,space,NA,m,NA,1,0.07999999999992724,images/zombie4.png
NA,NA,34,NA,keine schwere Krankheit,60.02400960382895,696929,NA,NA,2023.2.2,NA,NA,494.7730000000001,NA,2023-11-02_12h55.02.422,494.7730000000001,NA,NA,"Gehirnhautentzündung, Verstopfung",53,45,NA,2023-11-02_12h54.07.504,NA,48,NA,NA,494.3740000000001,494.373,NA,001,NA,Win32,0,493.8070000000001,NA,NA,001,NA,NA,NA,NA,NA,NA,0,NA,53,494.9070000000001,NA,0.1209999999999809,NA,NA,NA,t,696929,Zombie_new,Zombie,space,NA,g,NA,1,0.04399999999998272,images/zombie54.png
NA,NA,34,NA,MZD,60.02400960382895,696929,NA,NA,2023.2.2,NA,NA,495.8560000000001,NA,2023-11-02_12h55.02.422,495.8560000000001,NA,NA,"Abszess, Gehirnhautentzündung,Tränende Augen",54,19,NA,2023-11-02_12h54.07.504,NA,22,NA,NA,495.4570000000001,495.4570000000001,NA,001,NA,Win32,0,494.9070000000001,NA,NA,001,NA,NA,NA,NA,NA,NA,0,NA,54,495.99000000000007,NA,0.125,NA,NA,NA,t,696929,Zombie_new,Zombie,space,NA,m,NA,1,0.03099999999994907,images/zombie36.png
NA,NA,34,NA,keine schwere Krankheit,60.02400960382895,696929,NA,NA,2023.2.2,NA,NA,496.92300000000006,NA,2023-11-02_12h55.02.422,496.92300000000006,NA,NA,Tränende Augen,55,55,NA,2023-11-02_12h54.07.504,NA,58,NA,NA,496.573,496.573,NA,001,NA,Win32,0,495.99000000000007,NA,NA,001,NA,NA,NA,NA,NA,NA,0,NA,55,497.0570000000001,NA,0.12199999999995724,NA,NA,NA,t,696929,Zombie_new,Zombie,space,NA,g,NA,1,0.07200000000000273,images/zombie31.png
NA,NA,34,NA,TS19,60.02400960382895,696929,NA,NA,2023.2.2,NA,NA,498.007,NA,2023-11-02_12h55.02.422,498.007,NA,NA,"Abszess, Fieber, Hautausschlag, Tränende Augen",56,8,NA,2023-11-02_12h54.07.504,NA,11,NA,NA,497.623,497.623,NA,001,NA,Win32,0,497.0570000000001,NA,NA,001,NA,NA,NA,NA,NA,NA,1,NA,56,498.123,NA,0.11099999999999,NA,NA,NA,t,696929,Zombie_new,Zombie,space,NA,t,NA,1,0.06599999999991724,images/zombie13.png
NA,NA,34,NA,keine schwere Krankheit,60.02400960382895,696929,NA,NA,2023.2.2,NA,NA,499.04,NA,2023-11-02_12h55.02.422,499.04,NA,NA,"Juckreiz,Verstopfung",57,52,NA,2023-11-02_12h54.07.504,NA,55,NA,NA,498.69,498.69,NA,001,NA,Win32,0,498.123,NA,NA,001,NA,NA,NA,NA,NA,NA,0,NA,57,499.174,NA,0.12200000000007094,NA,NA,NA,t,696929,Zombie_new,Zombie,space,NA,g,NA,1,0.05600000000004002,images/zombie8.png
NA,NA,NA,509.17300000000006,NA,60.02400960382895,696929,NA,NA,2023.2.2,NA,NA,NA,NA,2023-11-02_12h55.02.422,NA,NA,NA,NA,NA,NA,NA,2023-11-02_12h54.07.504,NA,NA,NA,NA,NA,NA,NA,001,NA,Win32,NA,NA,NA,NA,001,NA,NA,NA,NA,NA,NA,NA,NA,NA,NA,NA,NA,NA,NA,499.174,NA,696929,Zombie_new,Zombie,NA,NA,NA,NA,NA,NA,NA
8.156899999976158,NA,NA,NA,NA,60.027612701844106,999735,NA,NA,2023.2.2,NA,NA,NA,4.9999999999883e-4,2023-11-02_22h10.51.046,NA,NA,8.126800000011919,NA,NA,NA,NA,2023-11-02_22h10.31.593,NA,NA,NA,NA,NA,NA,space,001,NA,Win32,NA,NA,NA,NA,001,NA,NA,NA,NA,NA,NA,NA,NA,NA,NA,NA,NA,NA,NA,NA,NA,999735,Zombie_new,Zombie,NA,NA,NA,NA,NA,NA,NA
NA,NA,NA,NA,NA,60.027612701844106,999735,NA,NA,2023.2.2,NA,NA,NA,NA,2023-11-02_22h10.51.046,NA,NA,NA,NA,NA,NA,NA,2023-11-02_22h10.31.593,NA,NA,9.15589999997616,NA,NA,NA,NA,001,NA,Win32,NA,NA,NA,8.157799999952317,001,NA,NA,NA,NA,NA,NA,NA,NA,NA,NA,NA,NA,NA,NA,NA,NA,999735,Zombie_new,Zombie,NA,NA,NA,NA,NA,NA,NA
NA,NA,NA,NA,NA,60.027612701844106,999735,NA,NA,2023.2.2,NA,13.419199999988075,NA,NA,2023-11-02_22h10.51.046,NA,NA,NA,NA,NA,NA,NA,2023-11-02_22h10.31.593,NA,NA,NA,NA,NA,NA,NA,001,22.60169999998808,Win32,NA,NA,NA,NA,001,space,NA,NA,NA,NA,NA,NA,NA,NA,NA,NA,NA,NA,NA,NA,NA,999735,Zombie_new,Zombie,NA,NA,NA,NA,NA,NA,NA
NA,17.604899999976155,NA,NA,NA,60.027612701844106,999735,NA,NA,2023.2.2,NA,NA,NA,NA,2023-11-02_22h10.51.046,NA,NA,NA,NA,NA,NA,NA,2023-11-02_22h10.31.593,NA,NA,NA,NA,NA,NA,NA,001,NA,Win32,NA,NA,NA,NA,001,NA,NA,NA,NA,NA,NA,NA,NA,NA,NA,NA,NA,NA,space,NA,NA,999735,Zombie_new,Zombie,NA,22.601999999999997,NA,40.23039999997616,NA,NA,NA
NA,NA,NA,NA,NA,60.027612701844106,999735,NA,40.23079999995231,2023.2.2,NA,NA,NA,NA,2023-11-02_22h10.51.046,NA,44.49529999995232,NA,NA,NA,NA,4.229800000011927,2023-11-02_22h10.31.593,NA,NA,NA,NA,NA,NA,NA,001,NA,Win32,NA,NA,NA,NA,001,NA,NA,NA,s,NA,NA,NA,NA,NA,NA,NA,NA,NA,NA,NA,NA,999735,Zombie_new,Zombie,NA,NA,NA,NA,NA,NA,NA
NA,NA,NA,NA,NA,60.027612701844106,999735,5.820000000000007,NA,2023.2.2,z,NA,NA,NA,2023-11-02_22h10.51.046,NA,NA,NA,NA,NA,NA,NA,2023-11-02_22h10.31.593,NA,NA,NA,44.49569999998808,NA,NA,NA,001,NA,Win32,NA,NA,50.34359999996425,NA,001,NA,NA,NA,NA,NA,NA,NA,NA,NA,NA,NA,NA,NA,NA,NA,NA,999735,Zombie_new,Zombie,NA,NA,NA,NA,NA,NA,NA
NA,NA,NA,NA,NA,60.027612701844106,999735,NA,NA,2023.2.2,NA,NA,NA,NA,2023-11-02_22h10.51.046,NA,NA,NA,NA,NA,NA,NA,2023-11-02_22h10.31.593,50.34409999996424,NA,NA,NA,NA,NA,NA,001,NA,Win32,NA,NA,NA,NA,001,NA,6.122400000035768,NA,NA,NA,NA,NA,d,NA,NA,NA,NA,56.49150000000001,NA,NA,NA,999735,Zombie_new,Zombie,NA,NA,NA,NA,NA,NA,NA
NA,NA,NA,NA,NA,60.027612701844106,999735,NA,NA,2023.2.2,NA,NA,NA,NA,2023-11-02_22h10.51.046,NA,NA,NA,NA,NA,NA,NA,2023-11-02_22h10.31.593,NA,NA,NA,NA,NA,NA,NA,001,NA,Win32,NA,NA,NA,NA,001,NA,NA,73.32,NA,16.80159999996424,56.49189999997616,NA,NA,NA,NA,space,NA,NA,NA,NA,NA,999735,Zombie_new,Zombie,NA,NA,NA,NA,NA,NA,NA
NA,NA,33,NA,TS19,60.027612701844106,999735,NA,NA,2023.2.2,NA,NA,112.32509999996424,NA,2023-11-02_22h10.51.046,112.3245,NA,NA,"Abszess, Fieber, Juckreiz, Tränende Augen",0,2,NA,2023-11-02_22h10.31.593,NA,5,NA,NA,98.0127999999523,98.01250000000002,NA,001,NA,Win32,0,73.37889999997617,NA,NA,001,NA,NA,NA,NA,NA,NA,1,NA,0,116.40629999995232,NA,4.071499999999986,NA,NA,NA,t,999735,Zombie_new,Zombie,space,NA,t,NA,1,24.12100000000001,images/zombie27.png
NA,NA,64,NA,TS19,60.027612701844106,999735,NA,NA,2023.2.2,NA,NA,126.13639999997616,NA,2023-11-02_22h10.51.046,126.136,NA,NA,"Fieber, Gehirnhautentzündung, Tränende Augen",1,5,NA,2023-11-02_22h10.31.593,NA,8,NA,NA,123.0535,123.05329999995232,NA,001,NA,Win32,0,116.42489999997616,NA,NA,001,NA,NA,NA,NA,NA,NA,0,NA,1,162.54119999998807,NA,36.394599999964214,NA,NA,NA,g,999735,Zombie_new,Zombie,space,NA,t,NA,1,6.1074999999999875,images/zombie26.png
NA,NA,33,NA,TS19,60.027612701844106,999735,NA,NA,2023.2.2,NA,NA,174.33759999996423,NA,2023-11-02_22h10.51.046,174.33739999997616,NA,NA,"Abszess, Fieber, Hautausschlag, Verstopfung",2,0,NA,2023-11-02_22h10.31.593,NA,3,NA,NA,167.77269999998808,167.77269999998808,NA,001,NA,Win32,0,162.56009999996422,NA,NA,001,NA,NA,NA,NA,NA,NA,0,NA,2,191.14959999996424,NA,16.795999999999992,NA,NA,NA,m,999735,Zombie_new,Zombie,space,NA,t,NA,1,4.691199999988072,images/zombie45.png
NA,NA,98,NA,MZD,60.027612701844106,999735,NA,NA,2023.2.2,NA,NA,196.91559999996423,NA,2023-11-02_22h10.51.046,196.91539999997616,NA,NA,"Abszess, Gehirnhautentzündung, Juckreiz, Tränende Augen",3,26,NA,2023-11-02_22h10.31.593,NA,29,NA,NA,194.83109999996424,194.83109999996424,NA,001,NA,Win32,0,191.1717999999523,NA,NA,001,NA,NA,NA,NA,NA,NA,0,NA,3,217.74079999995232,NA,20.813000000000017,NA,NA,NA,t,999735,Zombie_new,Zombie,space,NA,m,NA,1,3.14130000001191,images/zombie50.png
NA,NA,64,NA,MZD,60.027612701844106,999735,NA,NA,2023.2.2,NA,NA,227.42109999996424,NA,2023-11-02_22h10.51.046,227.42089999997617,NA,NA,"Abszess, Gehirnhautentzündung, Juckreiz",4,29,NA,2023-11-02_22h10.31.593,NA,32,NA,NA,225.72119999998807,225.72119999998807,NA,001,NA,Win32,0,217.76139999997616,NA,NA,001,NA,NA,NA,NA,NA,NA,1,NA,4,238.284,NA,10.857199999988095,NA,NA,NA,m,999735,Zombie_new,Zombie,space,NA,m,NA,1,7.445699999988079,images/zombie56.png
NA,NA,64,NA,keine schwere Krankheit,60.027612701844106,999735,NA,NA,2023.2.2,NA,NA,242.8830999999643,NA,2023-11-02_22h10.51.046,242.88289999997616,NA,NA,"Fieber, Hautausschlag",5,42,NA,2023-11-02_22h10.31.593,NA,45,NA,NA,240.71659999996425,240.71659999996425,NA,001,NA,Win32,0,238.2998999999762,NA,NA,001,NA,NA,NA,NA,NA,NA,1,NA,5,266.7257999999523,NA,23.829199999988077,NA,NA,NA,g,999735,Zombie_new,Zombie,space,NA,g,NA,1,1.9106000000238623,images/zombie12.png
NA,NA,64,NA,MZD,60.027612701844106,999735,NA,NA,2023.2.2,NA,NA,275.5061999999881,NA,2023-11-02_22h10.51.046,275.50609999996425,NA,NA,"Abszess, Gehirnhautentzündung, Juckreiz",6,24,NA,2023-11-02_22h10.31.593,NA,27,NA,NA,274.1735,274.17339999997614,NA,001,NA,Win32,0,266.7488999999762,NA,NA,001,NA,NA,NA,NA,NA,NA,1,NA,6,294.8498999999762,NA,19.340499999999963,NA,NA,NA,m,999735,Zombie_new,Zombie,space,NA,m,NA,1,6.913800000011918,images/zombie41.png
NA,NA,64,NA,TS19,60.027612701844106,999735,NA,NA,2023.2.2,NA,NA,300.4486999999881,NA,2023-11-02_22h10.51.046,300.4485,NA,NA,"Abszess, Fieber, Geschwollene Drüsen, Tränende Augen",7,7,NA,2023-11-02_22h10.31.593,NA,10,NA,NA,298.7156999999881,298.7155,NA,001,NA,Win32,0,294.86869999998805,NA,NA,001,NA,NA,NA,NA,NA,NA,1,NA,7,302.5817999999523,NA,2.1204000000357155,NA,NA,NA,t,999735,Zombie_new,Zombie,space,NA,t,NA,1,3.3245999999642777,images/zombie17.png
NA,NA,65,NA,TS19,60.027612701844106,999735,NA,NA,2023.2.2,NA,NA,307.8625,NA,2023-11-02_22h10.51.046,307.8625,NA,NA,"Fieber, Hautausschlag, Tränende Augen",8,11,NA,2023-11-02_22h10.31.593,NA,14,NA,NA,306.29619999998806,306.2960999999642,NA,001,NA,Win32,0,302.58259999996426,NA,NA,001,NA,NA,NA,NA,NA,NA,0,NA,8,323.3741999999881,NA,15.506599999964235,NA,NA,NA,m,999735,Zombie_new,Zombie,space,NA,t,NA,1,3.1967999999523045,images/zombie1.png
NA,NA,64,NA,keine schwere Krankheit,60.027612701844106,999735,NA,NA,2023.2.2,NA,NA,329.1225,NA,2023-11-02_22h10.51.046,329.1225,NA,NA,"Abszess, Gehirnhautentzündung",9,43,NA,2023-11-02_22h10.31.593,NA,46,NA,NA,327.5228999999762,327.5227999999523,NA,001,NA,Win32,0,323.39,NA,NA,001,NA,NA,NA,NA,NA,NA,1,NA,9,330.8552999999523,NA,1.718099999964238,NA,NA,NA,g,999735,Zombie_new,Zombie,space,NA,g,NA,1,3.624600000023804,images/zombie11.png
NA,NA,98,NA,TS19,60.027612701844106,999735,NA,NA,2023.2.2,NA,NA,337.8032999999523,NA,2023-11-02_22h10.51.046,337.8030999999642,NA,NA,"Abszess, Fieber, Geschwollene Drüsen, Tränende Augen",10,6,NA,2023-11-02_22h10.31.593,NA,9,NA,NA,336.4532999999523,336.4532999999523,NA,001,NA,Win32,0,330.8560999999642,NA,NA,001,NA,NA,NA,NA,NA,NA,1,NA,10,339.06939999997616,NA,1.2539999999999625,NA,NA,NA,t,999735,Zombie_new,Zombie,space,NA,t,NA,1,5.074199999988082,images/zombie44.png
NA,NA,64,NA,MZD,60.027612701844106,999735,NA,NA,2023.2.2,NA,NA,348.93289999997614,NA,2023-11-02_22h10.51.046,348.93289999997614,NA,NA,"Abszess, Gehirnhautentzündung,Geschwollene Drüsen, Verstopfung",11,20,NA,2023-11-02_22h10.31.593,NA,23,NA,NA,347.40189999997614,347.4017999999523,NA,001,NA,Win32,0,339.07029999995234,NA,NA,001,NA,NA,NA,NA,NA,NA,0,NA,11,371.3931999999881,NA,22.447199999988072,NA,NA,NA,g,999735,Zombie_new,Zombie,space,NA,m,NA,1,7.813799999952266,images/zombie22.png
NA,NA,65,NA,keine schwere Krankheit,60.027612701844106,999735,NA,NA,2023.2.2,NA,NA,379.007,NA,2023-11-02_22h10.51.046,379.00689999997616,NA,NA,"Gehirnhautentzündung, Hautausschlag",12,47,NA,2023-11-02_22h10.31.593,NA,50,NA,NA,376.54089999997615,376.54089999997615,NA,001,NA,Win32,0,371.4118999999762,NA,NA,001,NA,NA,NA,NA,NA,NA,1,NA,12,379.99,NA,0.973400000035781,NA,NA,NA,g,999735,Zombie_new,Zombie,space,NA,g,NA,1,4.607399999976167,images/zombie49.png
NA,NA,64,NA,MZD,60.027612701844106,999735,NA,NA,2023.2.2,NA,NA,386.9715999999642,NA,2023-11-02_22h10.51.046,386.9715999999642,NA,NA,"Abszess, Fieber, Gehirnhautentzündung, Hautausschlag",13,18,NA,2023-11-02_22h10.31.593,NA,21,NA,NA,385.2215,385.2215,NA,001,NA,Win32,0,379.99069999998807,NA,NA,001,NA,NA,NA,NA,NA,NA,0,NA,13,396.56819999998805,NA,9.587899999976116,NA,NA,NA,t,999735,Zombie_new,Zombie,space,NA,m,NA,1,4.707499999999982,images/zombie59.png
NA,NA,98,NA,keine schwere Krankheit,60.027612701844106,999735,NA,NA,2023.2.2,NA,NA,399.75079999995233,NA,2023-11-02_22h10.51.046,399.7505,NA,NA,"Fieber, Hautausschlag",14,41,NA,2023-11-02_22h10.31.593,NA,44,NA,NA,398.23409999996426,398.234,NA,001,NA,Win32,0,396.585,NA,NA,001,NA,NA,NA,NA,NA,NA,1,NA,14,401.1172999999523,NA,1.3548999999761122,NA,NA,NA,g,999735,Zombie_new,Zombie,space,NA,g,NA,1,1.1318000000119357,images/zombie14.png
NA,NA,64,NA,TS19,60.027612701844106,999735,NA,NA,2023.2.2,NA,NA,411.4967999999523,NA,2023-11-02_22h10.51.046,411.4966999999881,NA,NA,"Abszess, Juckreiz,Verstopfung,Tränende Augen",15,14,NA,2023-11-02_22h10.31.593,NA,17,NA,NA,409.98039999997616,409.9802999999523,NA,001,NA,Win32,0,401.11879999995233,NA,NA,001,NA,NA,NA,NA,NA,NA,0,NA,15,413.0135,NA,1.5045999999642277,NA,NA,NA,m,999735,Zombie_new,Zombie,space,NA,t,NA,1,8.339899999976183,images/zombie23.png
NA,NA,65,NA,MZD,60.027612701844106,999735,NA,NA,2023.2.2,NA,NA,417.64479999995234,NA,2023-11-02_22h10.51.046,417.64469999998806,NA,NA,"Abszess, Gehirnhautentzündung, Hautausschlag, Juckreiz",16,30,NA,2023-11-02_22h10.31.593,NA,33,NA,NA,416.2455999999642,416.2455,NA,001,NA,Win32,0,413.0141999999881,NA,NA,001,NA,NA,NA,NA,NA,NA,0,NA,16,418.81159999996424,NA,1.1613999999761404,NA,NA,NA,t,999735,Zombie_new,Zombie,space,NA,m,NA,1,2.7101000000238855,images/zombie10.png
NA,NA,64,NA,MZD,60.027612701844106,999735,NA,NA,2023.2.2,NA,NA,428.908,NA,2023-11-02_22h10.51.046,428.90789999997617,NA,NA,"Gehirnhautentzündung, Geschwollene Drüsen, Hautausschlag, Juckreiz",17,25,NA,2023-11-02_22h10.31.593,NA,28,NA,NA,427.5588999999762,427.5586999999881,NA,001,NA,Win32,0,418.8125999999642,NA,NA,001,NA,NA,NA,NA,NA,NA,1,NA,17,429.6745,NA,0.7561999999880413,NA,NA,NA,m,999735,Zombie_new,Zombie,space,NA,m,NA,1,8.22399999999999,images/zombie4.png
NA,NA,65,NA,MZD,60.027612701844106,999735,NA,NA,2023.2.2,NA,NA,436.28959999996425,NA,2023-11-02_22h10.51.046,436.2895,NA,NA,"Gehirnhautentzündung, Geschwollene Drüsen, Juckreiz",18,32,NA,2023-11-02_22h10.31.593,NA,35,NA,NA,434.7397999999523,434.7396999999881,NA,001,NA,Win32,0,429.67539999997615,NA,NA,001,NA,NA,NA,NA,NA,NA,0,NA,18,437.2397999999523,NA,0.94529999995234,NA,NA,NA,t,999735,Zombie_new,Zombie,space,NA,m,NA,1,4.542699999988088,images/zombie57.png
NA,NA,98,NA,TS19,60.027612701844106,999735,NA,NA,2023.2.2,NA,NA,441.2040999999642,NA,2023-11-02_22h10.51.046,441.204,NA,NA,"Fieber, Tränende Augen",19,13,NA,2023-11-02_22h10.31.593,NA,16,NA,NA,439.455,439.455,NA,001,NA,Win32,0,437.24089999997614,NA,NA,001,NA,NA,NA,NA,NA,NA,0,NA,19,455.7662999999523,NA,14.550599999964277,NA,NA,NA,g,999735,Zombie_new,Zombie,space,NA,t,NA,1,1.6935000000000286,images/zombie42.png
NA,NA,97,NA,MZD,60.027612701844106,999735,NA,NA,2023.2.2,NA,NA,461.532,NA,2023-11-02_22h10.51.046,461.532,NA,NA,"Abszess, Gehirnhautentzündung, Juckreiz",20,28,NA,2023-11-02_22h10.31.593,NA,31,NA,NA,459.6816999999881,459.68159999996425,NA,001,NA,Win32,0,455.78089999997616,NA,NA,001,NA,NA,NA,NA,NA,NA,1,NA,20,462.31579999995233,NA,0.7744999999999891,NA,NA,NA,m,999735,Zombie_new,Zombie,space,NA,m,NA,1,3.391300000011882,images/zombie18.png
NA,NA,33,NA,TS19,60.027612701844106,999735,NA,NA,2023.2.2,NA,NA,476.89339999997617,NA,2023-11-02_22h10.51.046,476.8932999999523,NA,NA,"Fieber, Gehirnhautentzündung, Geschwollene Drüsen, Hautausschlag",21,1,NA,2023-11-02_22h10.31.593,NA,4,NA,NA,474.9102999999523,474.9101999999881,NA,001,NA,Win32,0,462.3177999999523,NA,NA,001,NA,NA,NA,NA,NA,NA,0,NA,21,478.4922999999523,NA,1.5913000000119268,NA,NA,NA,g,999735,Zombie_new,Zombie,space,NA,t,NA,1,12.071300000011943,images/zombie19.png
NA,NA,64,NA,keine schwere Krankheit,60.027612701844106,999735,NA,NA,2023.2.2,NA,NA,483.8741999999881,NA,2023-11-02_22h10.51.046,483.874,NA,NA,"Abszess, Tränende Augen",22,53,NA,2023-11-02_22h10.31.593,NA,56,NA,NA,481.9913999999762,481.9913999999762,NA,001,NA,Win32,0,478.4930999999642,NA,NA,001,NA,NA,NA,NA,NA,NA,1,NA,22,484.9905999999642,NA,1.1055999999642268,NA,NA,NA,g,999735,Zombie_new,Zombie,space,NA,g,NA,1,2.9818999999761218,images/zombie30.png
NA,NA,64,NA,MZD,60.027612701844106,999735,NA,NA,2023.2.2,NA,NA,488.707,NA,2023-11-02_22h10.51.046,488.7067999999523,NA,NA,"Abszess, Juckreiz, Verstopfung",23,35,NA,2023-11-02_22h10.31.593,NA,38,NA,NA,487.6755999999642,487.67539999997615,NA,001,NA,Win32,0,484.99129999995233,NA,NA,001,NA,NA,NA,NA,NA,NA,1,NA,23,489.54099999999994,NA,0.8229999999999791,NA,NA,NA,m,999735,Zombie_new,Zombie,space,NA,m,NA,1,2.166999999999973,images/zombie39.png
NA,NA,97,NA,keine schwere Krankheit,60.027612701844106,999735,NA,NA,2023.2.2,NA,NA,494.6547999999522,NA,2023-11-02_22h10.51.046,494.6544999999999,NA,NA,"Juckreiz,Verstopfung",24,50,NA,2023-11-02_22h10.31.593,NA,53,NA,NA,493.089699999988,493.08939999997614,NA,001,NA,Win32,0,489.542,NA,NA,001,NA,NA,NA,NA,NA,NA,1,NA,24,495.55509999996417,NA,0.8931000000237646,NA,NA,NA,g,999735,Zombie_new,Zombie,space,NA,g,NA,1,3.0249999999999204,images/zombie34.png
NA,NA,99,NA,TS19,60.027612701844106,999735,NA,NA,2023.2.2,NA,NA,501.152199999988,NA,2023-11-02_22h10.51.046,501.15209999996415,NA,NA,"Abszess, Fieber, Verstopfung,Tränende Augen",25,12,NA,2023-11-02_22h10.31.593,NA,15,NA,NA,499.8705999999642,499.8701999999881,NA,001,NA,Win32,0,495.5573999999761,NA,NA,001,NA,NA,NA,NA,NA,NA,1,NA,25,501.969699999988,NA,0.8093999999762218,NA,NA,NA,t,999735,Zombie_new,Zombie,space,NA,t,NA,1,3.7934999999999945,images/zombie40.png
NA,NA,97,NA,keine schwere Krankheit,60.027612701844106,999735,NA,NA,2023.2.2,NA,NA,507.8999999999999,NA,2023-11-02_22h10.51.046,507.8999999999999,NA,NA,"Abszess, Geschwollene Drüsen, Juckreiz",26,48,NA,2023-11-02_22h10.31.593,NA,51,NA,NA,506.86859999996415,506.8682999999523,NA,001,NA,Win32,0,501.97169999998806,NA,NA,001,NA,NA,NA,NA,NA,NA,0,NA,26,508.7852999999522,NA,0.8771999999880791,NA,NA,NA,m,999735,Zombie_new,Zombie,space,NA,g,NA,1,4.37940000003573,images/zombie21.png
NA,NA,65,NA,MZD,60.027612701844106,999735,NA,NA,2023.2.2,NA,NA,514.8990999999643,NA,2023-11-02_22h10.51.046,514.8990999999643,NA,NA,"Gehirnhautentzündung, Juckreiz",27,31,NA,2023-11-02_22h10.31.593,NA,34,NA,NA,513.6327999999523,513.6325,NA,001,NA,Win32,0,508.786699999988,NA,NA,001,NA,NA,NA,NA,NA,NA,1,NA,27,524.1472999999523,NA,9.236900000035805,NA,NA,NA,m,999735,Zombie_new,Zombie,space,NA,m,NA,1,4.3271999999881245,images/zombie2.png
NA,NA,65,NA,TS19,60.027612701844106,999735,NA,NA,2023.2.2,NA,NA,529.5601999999881,NA,2023-11-02_22h10.51.046,529.56,NA,NA,"Abszess, Fieber, Gehirnhautentzündung, Tränende Augen",28,4,NA,2023-11-02_22h10.31.593,NA,7,NA,NA,528.5613999999762,528.5610999999642,NA,001,NA,Win32,0,524.185,NA,NA,001,NA,NA,NA,NA,NA,NA,0,NA,28,532.6945,NA,3.1240000000000236,NA,NA,NA,m,999735,Zombie_new,Zombie,space,NA,t,NA,1,3.860300000011875,images/zombie20.png
NA,NA,65,NA,keine schwere Krankheit,60.027612701844106,999735,NA,NA,2023.2.2,NA,NA,536.1415999999642,NA,2023-11-02_22h10.51.046,536.1413999999761,NA,NA,"Gehirnhautentzündung, Hautausschlag",29,46,NA,2023-11-02_22h10.31.593,NA,49,NA,NA,534.9095999999643,534.9090999999643,NA,001,NA,Win32,0,532.7290999999642,NA,NA,001,NA,NA,NA,NA,NA,NA,1,NA,29,537.2596999999881,NA,1.108400000035772,NA,NA,NA,g,999735,Zombie_new,Zombie,space,NA,g,NA,1,1.66159999996421,images/zombie60.png
NA,NA,64,NA,MZD,60.027612701844106,999735,NA,NA,2023.2.2,NA,NA,540.8903999999761,NA,2023-11-02_22h10.51.046,540.8902999999523,NA,NA,"Gehirnhautentzündung, Hautausschlag",30,21,NA,2023-11-02_22h10.31.593,NA,24,NA,NA,539.8250999999642,539.8247999999523,NA,001,NA,Win32,0,537.2611999999881,NA,NA,001,NA,NA,NA,NA,NA,NA,0,NA,30,548.6385999999642,NA,7.741700000047672,NA,NA,NA,g,999735,Zombie_new,Zombie,space,NA,m,NA,1,2.0446999999880973,images/zombie28.png
NA,NA,65,NA,MZD,60.027612701844106,999735,NA,NA,2023.2.2,NA,NA,553.4027999999523,NA,2023-11-02_22h10.51.046,553.4027999999523,NA,NA,"Abszess, Juckreiz",31,36,NA,2023-11-02_22h10.31.593,NA,39,NA,NA,551.8875,551.8871999999881,NA,001,NA,Win32,0,548.6761999999881,NA,NA,001,NA,NA,NA,NA,NA,NA,1,NA,31,554.4206999999881,NA,1.0088999999761654,NA,NA,NA,m,999735,Zombie_new,Zombie,space,NA,m,NA,1,2.6941999999880863,images/zombie24.png
NA,NA,98,NA,MZD,60.027612701844106,999735,NA,NA,2023.2.2,NA,NA,562.1332999999523,NA,2023-11-02_22h10.51.046,562.1332999999523,NA,NA,"Abszess, Gehirnhautentzündung, Juckreiz, Tränende Augen",32,27,NA,2023-11-02_22h10.31.593,NA,30,NA,NA,560.8847999999523,560.8845,NA,001,NA,Win32,0,554.4223999999762,NA,NA,001,NA,NA,NA,NA,NA,NA,1,NA,32,562.984699999988,NA,0.8433999999762136,NA,NA,NA,m,999735,Zombie_new,Zombie,space,NA,m,NA,1,5.942300000011983,images/zombie35.png
NA,NA,64,NA,TS19,60.027612701844106,999735,NA,NA,2023.2.2,NA,NA,583.9598999999762,NA,2023-11-02_22h10.51.046,583.9596999999881,NA,NA,"Abszess, Geschwollene Drüsen, Tränende Augen",33,15,NA,2023-11-02_22h10.31.593,NA,18,NA,NA,581.8946999999881,581.8945,NA,001,NA,Win32,0,562.9865,NA,NA,001,NA,NA,NA,NA,NA,NA,0,NA,33,584.7772999999523,NA,0.8093000000119446,NA,NA,NA,g,999735,Zombie_new,Zombie,space,NA,t,NA,1,18.39250000000004,images/zombie3.png
NA,NA,66,NA,MZD,60.027612701844106,999735,NA,NA,2023.2.2,NA,NA,589.0918999999761,NA,2023-11-02_22h10.51.046,589.0917999999523,NA,NA,"Abszess, Fieber, Gehirnhautentzündung, Juckreiz",34,22,NA,2023-11-02_22h10.31.593,NA,25,NA,NA,588.0928999999761,588.0927999999523,NA,001,NA,Win32,0,584.7793999999761,NA,NA,001,NA,NA,NA,NA,NA,NA,1,NA,34,589.9597999999523,NA,0.8578000000119346,NA,NA,NA,m,999735,Zombie_new,Zombie,space,NA,m,NA,1,2.7956999999880736,images/zombie58.png
NA,NA,97,NA,keine schwere Krankheit,60.027612701844106,999735,NA,NA,2023.2.2,NA,NA,593.807199999988,NA,2023-11-02_22h10.51.046,593.8070999999642,NA,NA,"Gehirnhautentzündung,Geschwollene Drüsen",35,44,NA,2023-11-02_22h10.31.593,NA,47,NA,NA,592.3255,592.3251999999881,NA,001,NA,Win32,0,589.9607999999523,NA,NA,001,NA,NA,NA,NA,NA,NA,1,NA,35,594.525,NA,0.7081000000238191,NA,NA,NA,g,999735,Zombie_new,Zombie,space,NA,g,NA,1,1.84439999997619,images/zombie47.png
NA,NA,65,NA,MZD,60.027612701844106,999735,NA,NA,2023.2.2,NA,NA,602.2540999999642,NA,2023-11-02_22h10.51.046,602.254,NA,NA,"Abszess, Gehirnhautentzündung,Tränende Augen",36,19,NA,2023-11-02_22h10.31.593,NA,22,NA,NA,600.9577999999523,600.9573999999761,NA,001,NA,Win32,0,594.5266999999881,NA,NA,001,NA,NA,NA,NA,NA,NA,1,NA,36,602.8385999999642,NA,0.5771000000238473,NA,NA,NA,m,999735,Zombie_new,Zombie,space,NA,m,NA,1,5.9144999999999754,images/zombie36.png
NA,NA,64,NA,MZD,60.027612701844106,999735,NA,NA,2023.2.2,NA,NA,612.0676999999881,NA,2023-11-02_22h10.51.046,612.0675999999643,NA,NA,"Fieber, Gehirnhautentzündung, Juckreiz, Verstopfung",37,23,NA,2023-11-02_22h10.31.593,NA,26,NA,NA,610.8187999999523,610.8185,NA,001,NA,Win32,0,602.8403999999762,NA,NA,001,NA,NA,NA,NA,NA,NA,0,NA,37,613.2360999999643,NA,1.1596000000238291,NA,NA,NA,t,999735,Zombie_new,Zombie,space,NA,m,NA,1,7.461500000000001,images/zombie51.png
NA,NA,99,NA,keine schwere Krankheit,60.027612701844106,999735,NA,NA,2023.2.2,NA,NA,616.8495999999642,NA,2023-11-02_22h10.51.046,616.8495999999642,NA,NA,Tränende Augen,38,55,NA,2023-11-02_22h10.31.593,NA,58,NA,NA,614.8012999999523,614.8011999999881,NA,001,NA,Win32,0,613.2376999999881,NA,NA,001,NA,NA,NA,NA,NA,NA,1,NA,38,617.484699999988,NA,0.6253000000119755,NA,NA,NA,g,999735,Zombie_new,Zombie,space,NA,g,NA,1,1.045100000023922,images/zombie31.png
NA,NA,66,NA,MZD,60.027612701844106,999735,NA,NA,2023.2.2,NA,NA,621.4147999999523,NA,2023-11-02_22h10.51.046,621.4147999999523,NA,NA,"Abszess, Geschwollene Drüsen, Juckreiz",39,37,NA,2023-11-02_22h10.31.593,NA,40,NA,NA,620.1661999999881,620.1659999999999,NA,001,NA,Win32,0,617.4865999999643,NA,NA,001,NA,NA,NA,NA,NA,NA,0,NA,39,621.9161999999881,NA,0.4931999999881782,NA,NA,NA,t,999735,Zombie_new,Zombie,space,NA,m,NA,1,2.165599999964229,images/zombie7.png
NA,NA,64,NA,keine schwere Krankheit,60.027612701844106,999735,NA,NA,2023.2.2,NA,NA,626.9630999999642,NA,2023-11-02_22h10.51.046,626.963,NA,NA,"Juckreiz,Verstopfung",40,49,NA,2023-11-02_22h10.31.593,NA,52,NA,NA,625.6812999999523,625.6808999999762,NA,001,NA,Win32,0,621.9180999999643,NA,NA,001,NA,NA,NA,NA,NA,NA,1,NA,40,627.4973999999762,NA,0.5258999999761045,NA,NA,NA,g,999735,Zombie_new,Zombie,space,NA,g,NA,1,3.244000000000028,images/zombie33.png
NA,NA,99,NA,TS19,60.027612701844106,999735,NA,NA,2023.2.2,NA,NA,631.0617999999523,NA,2023-11-02_22h10.51.046,631.0617999999523,NA,NA,"Verstopfung, Tränende Augen",41,17,NA,2023-11-02_22h10.31.593,NA,20,NA,NA,629.9628999999761,629.9627999999523,NA,001,NA,Win32,0,627.4993999999762,NA,NA,001,NA,NA,NA,NA,NA,NA,0,NA,41,631.5800999999642,NA,0.5086000000237618,NA,NA,NA,g,999735,Zombie_new,Zombie,space,NA,t,NA,1,1.9467999999523045,images/zombie32.png
NA,NA,65,NA,TS19,60.027612701844106,999735,NA,NA,2023.2.2,NA,NA,639.792699999988,NA,2023-11-02_22h10.51.046,639.792699999988,NA,NA,"Abszess, Fieber, Tränende Augen",42,10,NA,2023-11-02_22h10.31.593,NA,13,NA,NA,637.4275999999643,637.4273999999762,NA,001,NA,Win32,0,631.5815,NA,NA,001,NA,NA,NA,NA,NA,NA,1,NA,42,640.326699999988,NA,0.5275000000000318,NA,NA,NA,t,999735,Zombie_new,Zombie,space,NA,t,NA,1,5.3268000000119855,images/zombie9.png
NA,NA,64,NA,keine schwere Krankheit,60.027612701844106,999735,NA,NA,2023.2.2,NA,NA,650.605699999988,NA,2023-11-02_22h10.51.046,650.605699999988,NA,NA,"Abszess, Fieber",43,39,NA,2023-11-02_22h10.31.593,NA,42,NA,NA,649.5232999999523,649.5232999999523,NA,001,NA,Win32,0,640.329,NA,NA,001,NA,NA,NA,NA,NA,NA,1,NA,43,651.0240999999643,NA,0.40769999998804,NA,NA,NA,g,999735,Zombie_new,Zombie,space,NA,g,NA,1,8.680500000000052,images/zombie55.png
NA,NA,98,NA,keine schwere Krankheit,60.027612701844106,999735,NA,NA,2023.2.2,NA,NA,656.5872999999523,NA,2023-11-02_22h10.51.046,656.5871999999881,NA,NA,"Gehirnhautentzündung, Verstopfung",44,45,NA,2023-11-02_22h10.31.593,NA,48,NA,NA,655.0558999999762,655.0552999999524,NA,001,NA,Win32,0,651.025,NA,NA,001,NA,NA,NA,NA,NA,NA,1,NA,44,657.0727999999523,NA,0.4766999999881136,NA,NA,NA,g,999735,Zombie_new,Zombie,space,NA,g,NA,1,3.5103000000118527,images/zombie54.png
NA,NA,98,NA,keine schwere Krankheit,60.027612701844106,999735,NA,NA,2023.2.2,NA,NA,659.6366999999881,NA,2023-11-02_22h10.51.046,659.6365999999642,NA,NA,"Juckreiz,Verstopfung",45,52,NA,2023-11-02_22h10.31.593,NA,55,NA,NA,658.671,658.6706999999881,NA,001,NA,Win32,0,657.0741999999881,NA,NA,001,NA,NA,NA,NA,NA,NA,1,NA,45,660.0871999999881,NA,0.4429999999999836,NA,NA,NA,g,999735,Zombie_new,Zombie,space,NA,g,NA,1,1.0781000000238237,images/zombie8.png
NA,NA,65,NA,TS19,60.027612701844106,999735,NA,NA,2023.2.2,NA,NA,665.3847999999523,NA,2023-11-02_22h10.51.046,665.3846999999881,NA,NA,"Abszess, Fieber, Hautausschlag, Tränende Augen",46,8,NA,2023-11-02_22h10.31.593,NA,11,NA,NA,664.052199999988,664.052,NA,001,NA,Win32,0,660.0891999999881,NA,NA,001,NA,NA,NA,NA,NA,NA,1,NA,46,665.8852999999523,NA,0.49219999998808817,NA,NA,NA,t,999735,Zombie_new,Zombie,space,NA,t,NA,1,3.443600000023934,images/zombie13.png
NA,NA,98,NA,keine schwere Krankheit,60.027612701844106,999735,NA,NA,2023.2.2,NA,NA,669.3345999999642,NA,2023-11-02_22h10.51.046,669.3345,NA,NA,"Juckreiz,Verstopfung",47,51,NA,2023-11-02_22h10.31.593,NA,54,NA,NA,668.201199999988,668.2008999999762,NA,001,NA,Win32,0,665.8870999999642,NA,NA,001,NA,NA,NA,NA,NA,NA,1,NA,47,669.7340999999642,NA,0.3911999999880891,NA,NA,NA,g,999735,Zombie_new,Zombie,space,NA,g,NA,1,1.7947999999523745,images/zombie48.png
NA,NA,99,NA,TS19,60.027612701844106,999735,NA,NA,2023.2.2,NA,NA,677.3806999999881,NA,2023-11-02_22h10.51.046,677.3805999999643,NA,NA,"Abszess, Fieber, Tränende Augen",48,9,NA,2023-11-02_22h10.31.593,NA,12,NA,NA,675.6983999999761,675.6983999999761,NA,001,NA,Win32,0,669.7368999999761,NA,NA,001,NA,NA,NA,NA,NA,NA,1,NA,48,678.2155,NA,0.8253999999760708,NA,NA,NA,t,999735,Zombie_new,Zombie,space,NA,t,NA,1,5.446399999976165,images/zombie6.png
NA,NA,99,NA,MZD,60.027612701844106,999735,NA,NA,2023.2.2,NA,NA,681.8795,NA,2023-11-02_22h10.51.046,681.8795,NA,NA,"Abszess, Fieber, Juckreiz, Tränende Augen",49,34,NA,2023-11-02_22h10.31.593,NA,37,NA,NA,680.7472999999524,680.7471999999881,NA,001,NA,Win32,0,678.2175,NA,NA,001,NA,NA,NA,NA,NA,NA,0,NA,49,682.7138999999762,NA,0.8224000000357137,NA,NA,NA,t,999735,Zombie_new,Zombie,space,NA,m,NA,1,2.0103000000118527,images/zombie43.png
NA,NA,98,NA,keine schwere Krankheit,60.027612701844106,999735,NA,NA,2023.2.2,NA,NA,690.2270999999643,NA,2023-11-02_22h10.51.046,690.2270999999643,NA,NA,"Geschwollene Drüsen, Tränende Augen",50,54,NA,2023-11-02_22h10.31.593,NA,57,NA,NA,688.4281999999881,688.428,NA,001,NA,Win32,0,682.7148999999762,NA,NA,001,NA,NA,NA,NA,NA,NA,1,NA,50,690.9272999999523,NA,0.6960000000000264,NA,NA,NA,g,999735,Zombie_new,Zombie,space,NA,g,NA,1,5.192999999999984,images/zombie25.png
NA,NA,97,NA,keine schwere Krankheit,60.027612701844106,999735,NA,NA,2023.2.2,NA,NA,698.2578999999762,NA,2023-11-02_22h10.51.046,698.2577999999523,NA,NA,"Geschwollene Drüsen, Tränende Augen",51,56,NA,2023-11-02_22h10.31.593,NA,59,NA,NA,695.6593999999761,695.6590999999643,NA,001,NA,Win32,0,690.9300999999642,NA,NA,001,NA,NA,NA,NA,NA,NA,1,NA,51,698.792199999988,NA,0.5271999999880563,NA,NA,NA,g,999735,Zombie_new,Zombie,space,NA,g,NA,1,4.210499999999911,images/zombie38.png
NA,NA,65,NA,keine schwere Krankheit,60.027612701844106,999735,NA,NA,2023.2.2,NA,NA,707.0880999999642,NA,2023-11-02_22h10.51.046,707.088,NA,NA,"Abszess, Fieber, Hautausschlag",52,38,NA,2023-11-02_22h10.31.593,NA,41,NA,NA,704.6398999999761,704.6396999999881,NA,001,NA,Win32,0,698.7937999999523,NA,NA,001,NA,NA,NA,NA,NA,NA,0,NA,52,708.3735,NA,1.280599999964238,NA,NA,NA,t,999735,Zombie_new,Zombie,space,NA,g,NA,1,5.3284000000356855,images/zombie5.png
NA,NA,65,NA,keine schwere Krankheit,60.027612701844106,999735,NA,NA,2023.2.2,NA,NA,711.7032999999523,NA,2023-11-02_22h10.51.046,711.7032999999523,NA,NA,"Fieber, Geschwollene Drüsen",53,40,NA,2023-11-02_22h10.31.593,NA,43,NA,NA,710.4715,710.4713999999761,NA,001,NA,Win32,0,708.3753999999761,NA,NA,001,NA,NA,NA,NA,NA,NA,1,NA,53,712.8378999999761,NA,1.126199999987989,NA,NA,NA,g,999735,Zombie_new,Zombie,space,NA,g,NA,1,1.5779999999999743,images/zombie52.png
NA,NA,97,NA,TS19,60.027612701844106,999735,NA,NA,2023.2.2,NA,NA,717.234699999988,NA,2023-11-02_22h10.51.046,717.234699999988,NA,NA,"Abszess, Gehirnhautentzündung, Tränende Augen",54,16,NA,2023-11-02_22h10.31.593,NA,19,NA,NA,715.3370999999643,715.3362999999523,NA,001,NA,Win32,0,712.8392999999523,NA,NA,001,NA,NA,NA,NA,NA,NA,1,NA,54,718.9195999999642,NA,1.6758999999761954,NA,NA,NA,t,999735,Zombie_new,Zombie,space,NA,t,NA,1,1.977399999976228,images/zombie53.png
NA,NA,97,NA,TS19,60.027612701844106,999735,NA,NA,2023.2.2,NA,NA,728.4980999999642,NA,2023-11-02_22h10.51.046,728.498,NA,NA,"Fieber, Juckreiz,Tränende Augen",55,3,NA,2023-11-02_22h10.31.593,NA,6,NA,NA,726.8162999999523,726.8160999999642,NA,001,NA,Win32,0,718.9208999999762,NA,NA,001,NA,NA,NA,NA,NA,NA,1,NA,55,729.1495999999643,NA,0.6426999999880536,NA,NA,NA,t,999735,Zombie_new,Zombie,space,NA,t,NA,1,7.375999999999976,images/zombie16.png
NA,NA,63,NA,MZD,60.027612701844106,999735,NA,NA,2023.2.2,NA,NA,733.6131999999881,NA,2023-11-02_22h10.51.046,733.6131999999881,NA,NA,"Gehirnhautentzündung, Juckreiz, Verstopfung",56,33,NA,2023-11-02_22h10.31.593,NA,36,NA,NA,732.547699999988,732.5475999999642,NA,001,NA,Win32,0,729.1510999999642,NA,NA,001,NA,NA,NA,NA,NA,NA,1,NA,56,734.0971999999881,NA,0.4753999999761618,NA,NA,NA,m,999735,Zombie_new,Zombie,space,NA,m,NA,1,2.8780000000000427,images/zombie37.png
NA,NA,97,NA,keine schwere Krankheit,60.027612701844106,999735,NA,NA,2023.2.2,NA,NA,738.0285,NA,2023-11-02_22h10.51.046,738.0282999999523,NA,NA,Tränende Augen,57,57,NA,2023-11-02_22h10.31.593,NA,60,NA,NA,735.6465999999642,735.6463999999762,NA,001,NA,Win32,0,734.0995999999642,NA,NA,001,NA,NA,NA,NA,NA,NA,1,NA,57,739.296699999988,NA,1.2593999999762673,NA,NA,NA,g,999735,Zombie_new,Zombie,space,NA,g,NA,1,1.0275000000000318,images/zombie15.png
NA,NA,NA,749.2950999999642,NA,60.027612701844106,999735,NA,NA,2023.2.2,NA,NA,NA,NA,2023-11-02_22h10.51.046,NA,NA,NA,NA,NA,NA,NA,2023-11-02_22h10.31.593,NA,NA,NA,NA,NA,NA,NA,001,NA,Win32,NA,NA,NA,NA,001,NA,NA,NA,NA,NA,NA,NA,NA,NA,NA,NA,NA,NA,NA,739.2993999999761,NA,999735,Zombie_new,Zombie,NA,NA,NA,NA,NA,NA,NA
