InfoScreenWorld.started,WelcomeScreen.stopped,key_respWeiter.rt,slider.response,ThankYouScreen.stopped,CorrAns,frameRate,__participant,key_resp_2.rt,ShortQuiz.started,psychopyVersion,key_resp_2.keys,key_respWeitergehen.rt,Feedback.started,WelcomeScreen.started,date,ConfindentwithDecision.stopped,ShortQuiz.stopped,Zustimmung.rt,Symp,trialsZombies.thisN,trialsZombies.thisIndex,key_resp.rt,__datetime,ShortQuizQ2.started,Participant,blank500.stopped,ShortQuizQ1.started,ConfindentwithDecision.started,DiagnosisZombie.stopped,Zustimmung.keys,__session,InfoScreenWorld.stopped,OS,trialsZombies.thisRepN,DiagnosisZombie.started,ShortQuizQ1.stopped,blank500.started,session,key_respWeitergehen.keys,keySAntwortQ2.rt,InfoDiagnosisThemself.stopped,key_resp.keys,key_respWeiterDiagnosisthemself.rt,InfoDiagnosisThemself.started,key_resp_diagnosis.corr,keySAntwortQ2.keys,trialsZombies.thisTrialN,Feedback.stopped,key_respWeiterDiagnosisthemself.keys,key_resp_Feedback.rt,ShortQuizQ2.stopped,key_respWeiter.keys,ThankYouScreen.started,key_resp_diagnosis.keys,participant,__experimentName,expName,key_resp_Feedback.keys,InfoScreenDisease.started,CorrKey,InfoScreenDisease.stopped,trialsZombies.ran,key_resp_diagnosis.rt,images_zombie
﻿,9.837000000000003,,,,,60.02400960382895,696929,,,2023.2.2,,,,0.0010000000000047748,2023-11-02_12h55.02.422,,,9.802,,,,,2023-11-02_12h54.07.504,,,,,,,space,001,,Win32,,,,,001,,,,,,,,,,,,,,,,,696929,Zombie_new,Zombie,,,,,,,
﻿,,,,,,60.02400960382895,696929,,,2023.2.2,,,,,2023-11-02_12h55.02.422,,,,,,,,2023-11-02_12h54.07.504,,,10.837000000000003,,,,,001,,Win32,,,,9.837000000000003,001,,,,,,,,,,,,,,,,,696929,Zombie_new,Zombie,,,,,,,
﻿10.837000000000003,,,,,,60.02400960382895,696929,,,2023.2.2,,99.154,,,2023-11-02_12h55.02.422,,,,,,,,2023-11-02_12h54.07.504,,,,,,,,001,110.021,Win32,,,,,001,space,,,,,,,,,,,,,,,,696929,Zombie_new,Zombie,,,,,,,
﻿,,76.37,,,,60.02400960382895,696929,,,2023.2.2,,,,,2023-11-02_12h55.02.422,,,,,,,,2023-11-02_12h54.07.504,,,,,,,,001,,Win32,,,,,001,,,,,,,,,,,,,,space,,,696929,Zombie_new,Zombie,,110.021,,186.42200000000003,,,
﻿,,,,,,60.02400960382895,696929,,186.42200000000003,2023.2.2,,,,,2023-11-02_12h55.02.422,,192.60500000000002,,,,,6.150000000000006,2023-11-02_12h54.07.504,,,,,,,,001,,Win32,,,,,001,,,,s,,,,,,,,,,,,,696929,Zombie_new,Zombie,,,,,,,
﻿,,,,,,60.02400960382895,696929,6.913999999999987,,2023.2.2,z,,,,2023-11-02_12h55.02.422,,,,,,,,2023-11-02_12h54.07.504,,,,192.60500000000002,,,,001,,Win32,,,199.53699999999998,,001,,,,,,,,,,,,,,,,,696929,Zombie_new,Zombie,,,,,,,
﻿,,,,,,60.02400960382895,696929,,,2023.2.2,,,,,2023-11-02_12h55.02.422,,,,,,,,2023-11-02_12h54.07.504,199.538,,,,,,,001,,Win32,,,,,001,,4.932999999999964,,,,,,d,,,,,204.50399999999996,,,,696929,Zombie_new,Zombie,,,,,,,
﻿,,,,,,60.02400960382895,696929,,,2023.2.2,,,,,2023-11-02_12h55.02.422,,,,,,,,2023-11-02_12h54.07.504,,,,,,,,001,,Win32,,,,,001,,,235.488,,30.95999999999998,204.50399999999996,,,,,space,,,,,,696929,Zombie_new,Zombie,,,,,,,
﻿,,,33,,keine schwere Krankheit,60.02400960382895,696929,,,2023.2.2,,,272.772,,2023-11-02_12h55.02.422,272.772,,,"Juckreiz,Verstopfung",0,51,,2023-11-02_12h54.07.504,,54,,,263.606,263.60499999999996,,001,,Win32,0,235.502,,,001,,,,,,,0,,0,282.872,,10.088999999999999,,,,t,696929,Zombie_new,Zombie,space,,g,,1,27.593000000000018,images/zombie48.png
﻿,,,34,,keine schwere Krankheit,60.02400960382895,696929,,,2023.2.2,,,290.655,,2023-11-02_12h55.02.422,290.655,,,Tränende Augen,1,57,,2023-11-02_12h54.07.504,,60,,,287.989,287.989,,001,,Win32,0,282.873,,,001,,,,,,,0,,1,296.622,,5.953000000000031,,,,t,696929,Zombie_new,Zombie,space,,g,,1,4.604000000000042,images/zombie15.png
﻿,,,34,,keine schwere Krankheit,60.02400960382895,696929,,,2023.2.2,,,314.10499999999996,,2023-11-02_12h55.02.422,314.10499999999996,,,"Juckreiz,Verstopfung",2,50,,2023-11-02_12h54.07.504,,53,,,308.772,308.772,,001,,Win32,0,296.622,,,001,,,,,,,1,,2,318.27299999999997,,4.156000000000006,,,,g,696929,Zombie_new,Zombie,space,,g,,1,11.637999999999977,images/zombie34.png
﻿,,,33,,TS19,60.02400960382895,696929,,,2023.2.2,,,324.656,,2023-11-02_12h55.02.422,324.656,,,"Fieber, Gehirnhautentzündung, Geschwollene Drüsen, Hautausschlag",3,1,,2023-11-02_12h54.07.504,,4,,,322.239,322.239,,001,,Win32,0,318.27299999999997,,,001,,,,,,,1,,3,332.589,,7.925000000000011,,,,t,696929,Zombie_new,Zombie,space,,t,,1,3.4499999999999886,images/zombie19.png
﻿,,,33,,TS19,60.02400960382895,696929,,,2023.2.2,,,340.039,,2023-11-02_12h55.02.422,340.039,,,"Abszess, Fieber, Juckreiz, Tränende Augen",4,2,,2023-11-02_12h54.07.504,,5,,,338.722,338.722,,001,,Win32,0,332.589,,,001,,,,,,,1,,4,342.673,,2.6230000000000473,,,,t,696929,Zombie_new,Zombie,space,,t,,1,5.6299999999999955,images/zombie27.png
﻿,,,34,,MZD,60.02400960382895,696929,,,2023.2.2,,,347.989,,2023-11-02_12h55.02.422,347.989,,,"Abszess, Gehirnhautentzündung, Juckreiz, Tränende Augen",5,26,,2023-11-02_12h54.07.504,,29,,,346.68899999999996,346.68899999999996,,001,,Win32,0,342.673,,,001,,,,,,,0,,5,349.122,,1.1289999999999623,,,,t,696929,Zombie_new,Zombie,space,,m,,1,3.497000000000014,images/zombie50.png
﻿,,,35,,MZD,60.02400960382895,696929,,,2023.2.2,,,352.322,,2023-11-02_12h55.02.422,352.322,,,"Abszess, Fieber, Juckreiz, Tränende Augen",6,34,,2023-11-02_12h54.07.504,,37,,,351.407,351.407,,001,,Win32,0,349.123,,,001,,,,,,,0,,6,352.839,,0.5029999999999859,,,,t,696929,Zombie_new,Zombie,space,,m,,1,1.7549999999999955,images/zombie43.png
﻿,,,35,,MZD,60.02400960382895,696929,,,2023.2.2,,,354.255,,2023-11-02_12h55.02.422,354.255,,,"Abszess, Gehirnhautentzündung, Juckreiz",7,24,,2023-11-02_12h54.07.504,,27,,,353.43899999999996,353.43899999999996,,001,,Win32,0,352.839,,,001,,,,,,,0,,7,354.77299999999997,,0.5029999999999859,,,,t,696929,Zombie_new,Zombie,space,,m,,1,0.09699999999997999,images/zombie41.png
﻿,,,35,,keine schwere Krankheit,60.02400960382895,696929,,,2023.2.2,,,356.539,,2023-11-02_12h55.02.422,356.539,,,"Abszess, Fieber, Hautausschlag",8,38,,2023-11-02_12h54.07.504,,41,,,355.889,355.889,,001,,Win32,0,354.77299999999997,,,001,,,,,,,0,,8,356.839,,0.2980000000000018,,,,t,696929,Zombie_new,Zombie,space,,g,,1,0.5980000000000132,images/zombie5.png
﻿,,,35,,TS19,60.02400960382895,696929,,,2023.2.2,,,358.756,,2023-11-02_12h55.02.422,358.756,,,"Abszess, Fieber, Hautausschlag, Verstopfung",9,0,,2023-11-02_12h54.07.504,,3,,,357.705,357.705,,001,,Win32,0,356.839,,,001,,,,,,,1,,9,359.989,,1.2210000000000036,,,,t,696929,Zombie_new,Zombie,space,,t,,1,0.35599999999999454,images/zombie45.png
﻿,,,35,,TS19,60.02400960382895,696929,,,2023.2.2,,,363.656,,2023-11-02_12h55.02.422,363.656,,,"Abszess, Gehirnhautentzündung, Tränende Augen",10,16,,2023-11-02_12h54.07.504,,19,,,362.822,362.822,,001,,Win32,0,359.989,,,001,,,,,,,1,,10,364.473,,0.8059999999999832,,,,t,696929,Zombie_new,Zombie,space,,t,,1,2.309000000000026,images/zombie53.png
﻿,,,35,,MZD,60.02400960382895,696929,,,2023.2.2,,,366.67199999999997,,2023-11-02_12h55.02.422,366.67199999999997,,,"Abszess, Fieber, Gehirnhautentzündung, Juckreiz",11,22,,2023-11-02_12h54.07.504,,25,,,365.872,365.872,,001,,Win32,0,364.473,,,001,,,,,,,0,,11,367.93899999999996,,1.2549999999999955,,,,t,696929,Zombie_new,Zombie,space,,m,,1,0.8949999999999818,images/zombie58.png
﻿,,,34,,MZD,60.02400960382895,696929,,,2023.2.2,,,369.473,,2023-11-02_12h55.02.422,369.473,,,"Abszess, Gehirnhautentzündung, Juckreiz, Tränende Augen",12,27,,2023-11-02_12h54.07.504,,30,,,368.989,368.989,,001,,Win32,0,367.93899999999996,,,001,,,,,,,0,,12,369.989,,0.5039999999999623,,,,t,696929,Zombie_new,Zombie,space,,m,,1,0.5440000000000396,images/zombie35.png
﻿,,,34,,MZD,60.02400960382895,696929,,,2023.2.2,,,371.373,,2023-11-02_12h55.02.422,371.372,,,"Gehirnhautentzündung, Juckreiz",13,31,,2023-11-02_12h54.07.504,,34,,,370.906,370.906,,001,,Win32,0,369.99,,,001,,,,,,,0,,13,371.589,,0.20400000000000773,,,,t,696929,Zombie_new,Zombie,space,,m,,1,0.396000000000015,images/zombie2.png
﻿,,,34,,keine schwere Krankheit,60.02400960382895,696929,,,2023.2.2,,,373.473,,2023-11-02_12h55.02.422,373.473,,,"Abszess, Geschwollene Drüsen, Juckreiz",14,48,,2023-11-02_12h54.07.504,,51,,,373.02299999999997,373.02299999999997,,001,,Win32,0,371.59,,,001,,,,,,,0,,14,373.70599999999996,,0.22199999999998,,,,t,696929,Zombie_new,Zombie,space,,g,,1,0.9159999999999968,images/zombie21.png
﻿,,,34,,MZD,60.02400960382895,696929,,,2023.2.2,,,374.806,,2023-11-02_12h55.02.422,374.806,,,"Abszess, Gehirnhautentzündung, Hautausschlag, Juckreiz",15,30,,2023-11-02_12h54.07.504,,33,,,374.389,374.389,,001,,Win32,0,373.70599999999996,,,001,,,,,,,0,,15,375.039,,0.2230000000000132,,,,t,696929,Zombie_new,Zombie,space,,m,,1,0.17600000000004457,images/zombie10.png
﻿,,,34,,TS19,60.02400960382895,696929,,,2023.2.2,,,376.45599999999996,,2023-11-02_12h55.02.422,376.45599999999996,,,"Fieber, Juckreiz,Tränende Augen",16,3,,2023-11-02_12h54.07.504,,6,,,375.973,375.973,,001,,Win32,0,375.039,,,001,,,,,,,1,,16,376.639,,0.17399999999997817,,,,t,696929,Zombie_new,Zombie,space,,t,,1,0.42200000000002547,images/zombie16.png
﻿,,,34,,TS19,60.02400960382895,696929,,,2023.2.2,,,377.989,,2023-11-02_12h55.02.422,377.989,,,"Abszess, Fieber, Geschwollene Drüsen, Tränende Augen",17,7,,2023-11-02_12h54.07.504,,10,,,377.556,377.556,,001,,Win32,0,376.64,,,001,,,,,,,1,,17,378.20599999999996,,0.20799999999997,,,,t,696929,Zombie_new,Zombie,space,,t,,1,0.38899999999995316,images/zombie17.png
﻿,,,34,,MZD,60.02400960382895,696929,,,2023.2.2,,,379.289,,2023-11-02_12h55.02.422,379.289,,,"Gehirnhautentzündung, Juckreiz, Verstopfung",18,33,,2023-11-02_12h54.07.504,,36,,,378.923,378.923,,001,,Win32,0,378.20599999999996,,,001,,,,,,,0,,18,379.489,,0.18900000000002137,,,,t,696929,Zombie_new,Zombie,space,,m,,1,0.20600000000001728,images/zombie37.png
﻿,,,34,,MZD,60.02400960382895,696929,,,2023.2.2,,,380.473,,2023-11-02_12h55.02.422,380.473,,,"Abszess, Fieber, Gehirnhautentzündung, Hautausschlag",19,18,,2023-11-02_12h54.07.504,,21,,,380.072,380.072,,001,,Win32,0,379.489,,,001,,,,,,,0,,19,380.639,,0.16399999999998727,,,,t,696929,Zombie_new,Zombie,space,,m,,1,0.08100000000001728,images/zombie59.png
﻿,,,34,,keine schwere Krankheit,60.02400960382895,696929,,,2023.2.2,,,383.589,,2023-11-02_12h55.02.422,383.589,,,"Gehirnhautentzündung, Hautausschlag",20,47,,2023-11-02_12h54.07.504,,50,,,382.856,382.856,,001,,Win32,0,380.639,,,001,,,,,,,0,,20,387.43899999999996,,3.843999999999994,,,,m,696929,Zombie_new,Zombie,space,,g,,1,1.7069999999999936,images/zombie49.png
﻿,,,34,,keine schwere Krankheit,60.02400960382895,696929,,,2023.2.2,,,392.173,,2023-11-02_12h55.02.422,392.173,,,"Geschwollene Drüsen, Tränende Augen",21,56,,2023-11-02_12h54.07.504,,59,,,390.03999999999996,390.03999999999996,,001,,Win32,0,387.44,,,001,,,,,,,1,,21,392.70599999999996,,0.521000000000015,,,,g,696929,Zombie_new,Zombie,space,,g,,1,2.0710000000000264,images/zombie38.png
﻿,,,34,,keine schwere Krankheit,60.02400960382895,696929,,,2023.2.2,,,396.739,,2023-11-02_12h55.02.422,396.739,,,"Gehirnhautentzündung,Geschwollene Drüsen",22,44,,2023-11-02_12h54.07.504,,47,,,394.873,394.873,,001,,Win32,0,392.707,,,001,,,,,,,0,,22,398.123,,1.3789999999999623,,,,t,696929,Zombie_new,Zombie,space,,g,,1,1.6479999999999677,images/zombie47.png
﻿,,,34,,TS19,60.02400960382895,696929,,,2023.2.2,,,401.223,,2023-11-02_12h55.02.422,401.223,,,"Abszess, Fieber, Gehirnhautentzündung, Tränende Augen",23,4,,2023-11-02_12h54.07.504,,7,,,400.20599999999996,400.20599999999996,,001,,Win32,0,398.123,,,001,,,,,,,1,,23,401.372,,0.1360000000000241,,,,t,696929,Zombie_new,Zombie,space,,t,,1,1.5760000000000218,images/zombie20.png
﻿,,,34,,TS19,60.02400960382895,696929,,,2023.2.2,,,402.556,,2023-11-02_12h55.02.422,402.556,,,"Abszess, Fieber, Tränende Augen",24,9,,2023-11-02_12h54.07.504,,12,,,402.03999999999996,402.039,,001,,Win32,0,401.373,,,001,,,,,,,1,,24,402.739,,0.17700000000002092,,,,t,696929,Zombie_new,Zombie,space,,t,,1,0.15499999999997272,images/zombie6.png
﻿,,,34,,keine schwere Krankheit,60.02400960382895,696929,,,2023.2.2,,,403.889,,2023-11-02_12h55.02.422,403.889,,,"Fieber, Hautausschlag",25,42,,2023-11-02_12h54.07.504,,45,,,403.43899999999996,403.43899999999996,,001,,Win32,0,402.74,,,001,,,,,,,0,,25,404.02299999999997,,0.132000000000005,,,,t,696929,Zombie_new,Zombie,space,,g,,1,0.18299999999999272,images/zombie12.png
﻿,,,34,,MZD,60.02400960382895,696929,,,2023.2.2,,,405.18899999999996,,2023-11-02_12h55.02.422,405.18899999999996,,,"Gehirnhautentzündung, Hautausschlag",26,21,,2023-11-02_12h54.07.504,,24,,,404.789,404.789,,001,,Win32,0,404.02299999999997,,,001,,,,,,,0,,26,405.372,,0.17099999999999227,,,,t,696929,Zombie_new,Zombie,space,,m,,1,0.24300000000005184,images/zombie28.png
﻿,,,34,,MZD,60.02400960382895,696929,,,2023.2.2,,,406.455,,2023-11-02_12h55.02.422,406.455,,,"Gehirnhautentzündung, Geschwollene Drüsen, Juckreiz",27,32,,2023-11-02_12h54.07.504,,35,,,406.073,406.073,,001,,Win32,0,405.372,,,001,,,,,,,0,,27,406.606,,0.14200000000005275,,,,t,696929,Zombie_new,Zombie,space,,m,,1,0.19700000000000273,images/zombie57.png
﻿,,,34,,TS19,60.02400960382895,696929,,,2023.2.2,,,407.772,,2023-11-02_12h55.02.422,407.772,,,"Abszess, Fieber, Tränende Augen",28,10,,2023-11-02_12h54.07.504,,13,,,407.339,407.339,,001,,Win32,0,406.606,,,001,,,,,,,1,,28,407.93899999999996,,0.16100000000000136,,,,t,696929,Zombie_new,Zombie,space,,t,,1,0.228999999999985,images/zombie9.png
﻿,,,34,,keine schwere Krankheit,60.02400960382895,696929,,,2023.2.2,,,408.93899999999996,,2023-11-02_12h55.02.422,408.93899999999996,,,"Geschwollene Drüsen, Tränende Augen",29,54,,2023-11-02_12h54.07.504,,57,,,408.539,408.539,,001,,Win32,0,407.93899999999996,,,001,,,,,,,0,,29,409.106,,0.16199999999997772,,,,t,696929,Zombie_new,Zombie,space,,g,,1,0.08899999999999864,images/zombie25.png
﻿,,,34,,MZD,60.02400960382895,696929,,,2023.2.2,,,410.10499999999996,,2023-11-02_12h55.02.422,410.10499999999996,,,"Abszess, Gehirnhautentzündung, Juckreiz",30,28,,2023-11-02_12h54.07.504,,31,,,409.622,409.622,,001,,Win32,0,409.106,,,001,,,,,,,0,,30,410.356,,0.24399999999997135,,,,t,696929,Zombie_new,Zombie,space,,m,,1,0.004000000000019099,images/zombie18.png
﻿,,,34,,MZD,60.02400960382895,696929,,,2023.2.2,,,411.339,,2023-11-02_12h55.02.422,411.339,,,"Abszess, Juckreiz, Verstopfung ",31,35,,2023-11-02_12h54.07.504,,38,,,410.95599999999996,410.95599999999996,,001,,Win32,0,410.35699999999997,,,001,,,,,,,0,,31,411.506,,0.16200000000003456,,,,t,696929,Zombie_new,Zombie,space,,m,,1,0.07099999999996953,images/zombie39.png
﻿,,,34,,TS19,60.02400960382895,696929,,,2023.2.2,,,412.372,,2023-11-02_12h55.02.422,412.372,,,"Abszess, Fieber, Verstopfung,Tränende Augen",32,12,,2023-11-02_12h54.07.504,,15,,,412.123,412.123,,001,,Win32,0,411.506,,,001,,,,,,,1,,32,412.556,,0.17000000000001592,,,,t,696929,Zombie_new,Zombie,space,,t,,1,0.10500000000001819,images/zombie40.png
﻿,,,34,,TS19,60.02400960382895,696929,,,2023.2.2,,,413.506,,2023-11-02_12h55.02.422,413.506,,,"Fieber, Gehirnhautentzündung, Tränende Augen",33,5,,2023-11-02_12h54.07.504,,8,,,413.20599999999996,413.20599999999996,,001,,Win32,0,412.556,,,001,,,,,,,1,,33,413.656,,0.13900000000001,,,,t,696929,Zombie_new,Zombie,space,,t,,1,0.12299999999999045,images/zombie26.png
﻿,,,34,,keine schwere Krankheit,60.02400960382895,696929,,,2023.2.2,,,414.573,,2023-11-02_12h55.02.422,414.573,,,"Abszess, Gehirnhautentzündung",34,43,,2023-11-02_12h54.07.504,,46,,,414.272,414.272,,001,,Win32,0,413.657,,,001,,,,,,,0,,34,414.74,,0.15399999999999636,,,,t,696929,Zombie_new,Zombie,space,,g,,1,0.09800000000001319,images/zombie11.png
﻿,,,34,,keine schwere Krankheit,60.02400960382895,696929,,,2023.2.2,,,415.722,,2023-11-02_12h55.02.422,415.722,,,"Juckreiz,Verstopfung",35,49,,2023-11-02_12h54.07.504,,52,,,415.39,415.39,,001,,Win32,0,414.74,,,001,,,,,,,0,,35,415.856,,0.1309999999999718,,,,t,696929,Zombie_new,Zombie,space,,g,,1,0.1260000000000332,images/zombie33.png
﻿,,,34,,MZD,60.02400960382895,696929,,,2023.2.2,,,416.806,,2023-11-02_12h55.02.422,416.806,,,"Abszess, Gehirnhautentzündung, Juckreiz",36,29,,2023-11-02_12h54.07.504,,32,,,416.49,416.49,,001,,Win32,0,415.856,,,001,,,,,,,0,,36,416.906,,0.09600000000000364,,,,t,696929,Zombie_new,Zombie,space,,m,,1,0.12999999999999545,images/zombie56.png
﻿,,,34,,MZD,60.02400960382895,696929,,,2023.2.2,,,417.889,,2023-11-02_12h55.02.422,417.889,,,"Abszess, Juckreiz",37,36,,2023-11-02_12h54.07.504,,39,,,417.574,417.573,,001,,Win32,0,416.907,,,001,,,,,,,0,,37,418.006,,0.10800000000000409,,,,t,696929,Zombie_new,Zombie,space,,m,,1,0.1379999999999768,images/zombie24.png
﻿,,,34,,TS19,60.02400960382895,696929,,,2023.2.2,,,418.93899999999996,,2023-11-02_12h55.02.422,418.93899999999996,,,"Abszess, Juckreiz,Verstopfung,Tränende Augen",38,14,,2023-11-02_12h54.07.504,,17,,,418.639,418.639,,001,,Win32,0,418.006,,,001,,,,,,,1,,38,419.022,,0.08199999999999363,,,,t,696929,Zombie_new,Zombie,space,,t,,1,0.132000000000005,images/zombie23.png
﻿,,,34,,TS19,60.02400960382895,696929,,,2023.2.2,,,419.823,,2023-11-02_12h55.02.422,419.823,,,"Abszess, Geschwollene Drüsen, Tränende Augen",39,15,,2023-11-02_12h54.07.504,,18,,,419.572,419.572,,001,,Win32,0,419.02299999999997,,,001,,,,,,,1,,39,419.99,,0.160000000000025,,,,t,696929,Zombie_new,Zombie,space,,t,,1,0.026999999999986812,images/zombie3.png
﻿,,,34,,MZD,60.02400960382895,696929,,,2023.2.2,,,420.839,,2023-11-02_12h55.02.422,420.839,,,"Abszess, Gehirnhautentzündung,Geschwollene Drüsen, Verstopfung",40,20,,2023-11-02_12h54.07.504,,23,,,420.55699999999996,420.556,,001,,Win32,0,419.99,,,001,,,,,,,0,,40,420.923,,0.07800000000003138,,,,t,696929,Zombie_new,Zombie,space,,m,,1,0.03899999999998727,images/zombie22.png
﻿,,,34,,TS19,60.02400960382895,696929,,,2023.2.2,,,421.789,,2023-11-02_12h55.02.422,421.789,,,"Fieber, Hautausschlag, Tränende Augen",41,11,,2023-11-02_12h54.07.504,,14,,,421.506,421.506,,001,,Win32,0,420.923,,,001,,,,,,,1,,41,421.889,,0.08800000000002228,,,,t,696929,Zombie_new,Zombie,space,,t,,1,0.07099999999996953,images/zombie1.png
﻿,,,34,,TS19,60.02400960382895,696929,,,2023.2.2,,,422.756,,2023-11-02_12h55.02.422,422.756,,,"Fieber, Tränende Augen",42,13,,2023-11-02_12h54.07.504,,16,,,422.506,422.506,,001,,Win32,0,421.89,,,001,,,,,,,1,,42,422.906,,0.146000000000015,,,,t,696929,Zombie_new,Zombie,space,,t,,1,0.08899999999999864,images/zombie42.png
﻿,,,34,,keine schwere Krankheit,60.02400960382895,696929,,,2023.2.2,,,423.806,,2023-11-02_12h55.02.422,423.806,,,"Fieber, Hautausschlag",43,41,,2023-11-02_12h54.07.504,,44,,,423.522,423.522,,001,,Win32,0,422.906,,,001,,,,,,,0,,43,423.93899999999996,,0.12800000000004275,,,,t,696929,Zombie_new,Zombie,space,,g,,1,0.10599999999999454,images/zombie14.png
﻿,,,34,,keine schwere Krankheit,60.02400960382895,696929,,,2023.2.2,,,482.42400000000004,,2023-11-02_12h55.02.422,482.42400000000004,,,"Gehirnhautentzündung, Hautausschlag",44,46,,2023-11-02_12h54.07.504,,49,,,481.04,481.04,,001,,Win32,0,423.93899999999996,,,001,,,,,,,0,,44,482.623,,0.18600000000003547,,,,t,696929,Zombie_new,Zombie,space,,g,,1,56.59100000000001,images/zombie60.png
﻿,,,34,,MZD,60.02400960382895,696929,,,2023.2.2,,,485.406,,2023-11-02_12h55.02.422,485.406,,,"Fieber, Gehirnhautentzündung, Juckreiz, Verstopfung",45,23,,2023-11-02_12h54.07.504,,26,,,483.223,483.223,,001,,Win32,0,482.6240000000001,,,001,,,,,,,0,,45,485.64000000000004,,0.22199999999998,,,,t,696929,Zombie_new,Zombie,space,,m,,1,0.07399999999995543,images/zombie51.png
﻿,,,34,,keine schwere Krankheit,60.02400960382895,696929,,,2023.2.2,,,486.7060000000001,,2023-11-02_12h55.02.422,486.7060000000001,,,"Abszess, Fieber",46,39,,2023-11-02_12h54.07.504,,42,,,486.2780000000001,486.2780000000001,,001,,Win32,0,485.641,,,001,,,,,,,0,,46,486.85600000000005,,0.1470000000000482,,,,t,696929,Zombie_new,Zombie,space,,g,,1,0.12200000000007094,images/zombie55.png
﻿,,,34,,keine schwere Krankheit,60.02400960382895,696929,,,2023.2.2,,,488.0230000000001,,2023-11-02_12h55.02.422,488.0230000000001,,,"Fieber, Geschwollene Drüsen",47,40,,2023-11-02_12h54.07.504,,43,,,487.45700000000005,487.4560000000001,,001,,Win32,0,486.85600000000005,,,001,,,,,,,0,,47,488.14000000000004,,0.11000000000001364,,,,t,696929,Zombie_new,Zombie,space,,g,,1,0.09800000000007003,images/zombie52.png
﻿,,,34,,TS19,60.02400960382895,696929,,,2023.2.2,,,489.123,,2023-11-02_12h55.02.422,489.123,,,"Verstopfung, Tränende Augen",48,17,,2023-11-02_12h54.07.504,,20,,,488.74000000000007,488.74000000000007,,001,,Win32,0,488.14000000000004,,,001,,,,,,,1,,48,489.2730000000001,,0.14599999999995816,,,,t,696929,Zombie_new,Zombie,space,,t,,1,0.09500000000002728,images/zombie32.png
﻿,,,34,,keine schwere Krankheit,60.02400960382895,696929,,,2023.2.2,,,490.324,,2023-11-02_12h55.02.422,490.324,,,"Abszess, Tränende Augen",49,53,,2023-11-02_12h54.07.504,,56,,,489.89000000000004,489.89000000000004,,001,,Win32,0,489.2730000000001,,,001,,,,,,,0,,49,490.4560000000001,,0.1290000000000191,,,,t,696929,Zombie_new,Zombie,space,,g,,1,0.10500000000001819,images/zombie30.png
﻿,,,34,,TS19,60.02400960382895,696929,,,2023.2.2,,,491.473,,2023-11-02_12h55.02.422,491.473,,,"Abszess, Fieber, Geschwollene Drüsen, Tränende Augen",50,6,,2023-11-02_12h54.07.504,,9,,,491.07300000000004,491.07300000000004,,001,,Win32,0,490.4560000000001,,,001,,,,,,,1,,50,491.60600000000005,,0.12000000000000455,,,,t,696929,Zombie_new,Zombie,space,,t,,1,0.10500000000001819,images/zombie44.png
﻿,,,34,,MZD,60.02400960382895,696929,,,2023.2.2,,,492.5560000000001,,2023-11-02_12h55.02.422,492.5560000000001,,,"Abszess, Geschwollene Drüsen, Juckreiz",51,37,,2023-11-02_12h54.07.504,,40,,,492.17300000000006,492.17300000000006,,001,,Win32,0,491.60600000000005,,,001,,,,,,,0,,51,492.689,,0.1290000000000191,,,,t,696929,Zombie_new,Zombie,space,,m,,1,0.05999999999994543,images/zombie7.png
﻿,,,34,,MZD,60.02400960382895,696929,,,2023.2.2,,,493.67300000000006,,2023-11-02_12h55.02.422,493.67300000000006,,,"Gehirnhautentzündung, Geschwollene Drüsen, Hautausschlag, Juckreiz",52,25,,2023-11-02_12h54.07.504,,28,,,493.29,493.29,,001,,Win32,0,492.6910000000001,,,001,,,,,,,0,,52,493.8060000000001,,0.1209999999999809,,,,t,696929,Zombie_new,Zombie,space,,m,,1,0.07999999999992724,images/zombie4.png
﻿,,,34,,keine schwere Krankheit,60.02400960382895,696929,,,2023.2.2,,,494.7730000000001,,2023-11-02_12h55.02.422,494.7730000000001,,,"Gehirnhautentzündung, Verstopfung",53,45,,2023-11-02_12h54.07.504,,48,,,494.3740000000001,494.373,,001,,Win32,0,493.8070000000001,,,001,,,,,,,0,,53,494.9070000000001,,0.1209999999999809,,,,t,696929,Zombie_new,Zombie,space,,g,,1,0.04399999999998272,images/zombie54.png
﻿,,,34,,MZD,60.02400960382895,696929,,,2023.2.2,,,495.85600000000005,,2023-11-02_12h55.02.422,495.85600000000005,,,"Abszess, Gehirnhautentzündung,Tränende Augen",54,19,,2023-11-02_12h54.07.504,,22,,,495.45700000000005,495.45700000000005,,001,,Win32,0,494.9070000000001,,,001,,,,,,,0,,54,495.99000000000007,,0.125,,,,t,696929,Zombie_new,Zombie,space,,m,,1,0.03099999999994907,images/zombie36.png
﻿,,,34,,keine schwere Krankheit,60.02400960382895,696929,,,2023.2.2,,,496.92300000000006,,2023-11-02_12h55.02.422,496.92300000000006,,,Tränende Augen,55,55,,2023-11-02_12h54.07.504,,58,,,496.57300000000004,496.57300000000004,,001,,Win32,0,495.99000000000007,,,001,,,,,,,0,,55,497.0570000000001,,0.12199999999995725,,,,t,696929,Zombie_new,Zombie,space,,g,,1,0.07200000000000273,images/zombie31.png
﻿,,,34,,TS19,60.02400960382895,696929,,,2023.2.2,,,498.007,,2023-11-02_12h55.02.422,498.007,,,"Abszess, Fieber, Hautausschlag, Tränende Augen",56,8,,2023-11-02_12h54.07.504,,11,,,497.623,497.623,,001,,Win32,0,497.0570000000001,,,001,,,,,,,1,,56,498.123,,0.11099999999999,,,,t,696929,Zombie_new,Zombie,space,,t,,1,0.06599999999991724,images/zombie13.png
﻿,,,34,,keine schwere Krankheit,60.02400960382895,696929,,,2023.2.2,,,499.04,,2023-11-02_12h55.02.422,499.04,,,"Juckreiz,Verstopfung",57,52,,2023-11-02_12h54.07.504,,55,,,498.69,498.69,,001,,Win32,0,498.123,,,001,,,,,,,0,,57,499.17400000000004,,0.12200000000007094,,,,t,696929,Zombie_new,Zombie,space,,g,,1,0.05600000000004002,images/zombie8.png
﻿,,,,509.17300000000006,,60.02400960382895,696929,,,2023.2.2,,,,,2023-11-02_12h55.02.422,,,,,,,,2023-11-02_12h54.07.504,,,,,,,,001,,Win32,,,,,001,,,,,,,,,,,,,,,499.17400000000004,,696929,Zombie_new,Zombie,,,,,,,
﻿,8.156899999976158,,,,,60.027612701844106,999735,,,2023.2.2,,,,0.0004999999999988347,2023-11-02_22h10.51.046,,,8.126800000011919,,,,,2023-11-02_22h10.31.593,,,,,,,space,001,,Win32,,,,,001,,,,,,,,,,,,,,,,,999735,Zombie_new,Zombie,,,,,,,
﻿,,,,,,60.027612701844106,999735,,,2023.2.2,,,,,2023-11-02_22h10.51.046,,,,,,,,2023-11-02_22h10.31.593,,,9.15589999997616,,,,,001,,Win32,,,,8.157799999952317,001,,,,,,,,,,,,,,,,,999735,Zombie_new,Zombie,,,,,,,
﻿9.156299999952314,,,,,,60.027612701844106,999735,,,2023.2.2,,13.419199999988077,,,2023-11-02_22h10.51.046,,,,,,,,2023-11-02_22h10.31.593,,,,,,,,001,22.601699999988078,Win32,,,,,001,space,,,,,,,,,,,,,,,,999735,Zombie_new,Zombie,,,,,,,
﻿,,17.604899999976155,,,,60.027612701844106,999735,,,2023.2.2,,,,,2023-11-02_22h10.51.046,,,,,,,,2023-11-02_22h10.31.593,,,,,,,,001,,Win32,,,,,001,,,,,,,,,,,,,,space,,,999735,Zombie_new,Zombie,,22.601999999999997,,40.23039999997616,,,
﻿,,,,,,60.027612701844106,999735,,40.23079999995231,2023.2.2,,,,,2023-11-02_22h10.51.046,,44.495299999952316,,,,,4.229800000011927,2023-11-02_22h10.31.593,,,,,,,,001,,Win32,,,,,001,,,,s,,,,,,,,,,,,,999735,Zombie_new,Zombie,,,,,,,
﻿,,,,,,60.027612701844106,999735,5.820000000000007,,2023.2.2,z,,,,2023-11-02_22h10.51.046,,,,,,,,2023-11-02_22h10.31.593,,,,44.495699999988084,,,,001,,Win32,,,50.34359999996425,,001,,,,,,,,,,,,,,,,,999735,Zombie_new,Zombie,,,,,,,
﻿,,,,,,60.027612701844106,999735,,,2023.2.2,,,,,2023-11-02_22h10.51.046,,,,,,,,2023-11-02_22h10.31.593,50.344099999964236,,,,,,,001,,Win32,,,,,001,,6.122400000035768,,,,,,d,,,,,56.49150000000001,,,,999735,Zombie_new,Zombie,,,,,,,
﻿,,,,,,60.027612701844106,999735,,,2023.2.2,,,,,2023-11-02_22h10.51.046,,,,,,,,2023-11-02_22h10.31.593,,,,,,,,001,,Win32,,,,,001,,,73.32,,16.80159999996424,56.49189999997616,,,,,space,,,,,,999735,Zombie_new,Zombie,,,,,,,
﻿,,,33,,TS19,60.027612701844106,999735,,,2023.2.2,,,112.32509999996424,,2023-11-02_22h10.51.046,112.3245,,,"Abszess, Fieber, Juckreiz, Tränende Augen",0,2,,2023-11-02_22h10.31.593,,5,,,98.0127999999523,98.01250000000002,,001,,Win32,0,73.37889999997617,,,001,,,,,,,1,,0,116.40629999995232,,4.071499999999986,,,,t,999735,Zombie_new,Zombie,space,,t,,1,24.12100000000001,images/zombie27.png
﻿,,,64,,TS19,60.027612701844106,999735,,,2023.2.2,,,126.13639999997616,,2023-11-02_22h10.51.046,126.136,,,"Fieber, Gehirnhautentzündung, Tränende Augen",1,5,,2023-11-02_22h10.31.593,,8,,,123.05349999999999,123.05329999995232,,001,,Win32,0,116.42489999997616,,,001,,,,,,,0,,1,162.54119999998807,,36.394599999964214,,,,g,999735,Zombie_new,Zombie,space,,t,,1,6.1074999999999875,images/zombie26.png
﻿,,,33,,TS19,60.027612701844106,999735,,,2023.2.2,,,174.33759999996423,,2023-11-02_22h10.51.046,174.33739999997616,,,"Abszess, Fieber, Hautausschlag, Verstopfung",2,0,,2023-11-02_22h10.31.593,,3,,,167.77269999998808,167.77269999998808,,001,,Win32,0,162.56009999996422,,,001,,,,,,,0,,2,191.14959999996424,,16.795999999999992,,,,m,999735,Zombie_new,Zombie,space,,t,,1,4.691199999988072,images/zombie45.png
﻿,,,98,,MZD,60.027612701844106,999735,,,2023.2.2,,,196.91559999996423,,2023-11-02_22h10.51.046,196.91539999997616,,,"Abszess, Gehirnhautentzündung, Juckreiz, Tränende Augen",3,26,,2023-11-02_22h10.31.593,,29,,,194.83109999996424,194.83109999996424,,001,,Win32,0,191.1717999999523,,,001,,,,,,,0,,3,217.74079999995232,,20.813000000000017,,,,t,999735,Zombie_new,Zombie,space,,m,,1,3.14130000001191,images/zombie50.png
﻿,,,64,,MZD,60.027612701844106,999735,,,2023.2.2,,,227.42109999996424,,2023-11-02_22h10.51.046,227.42089999997614,,,"Abszess, Gehirnhautentzündung, Juckreiz",4,29,,2023-11-02_22h10.31.593,,32,,,225.72119999998807,225.72119999998807,,001,,Win32,0,217.76139999997616,,,001,,,,,,,1,,4,238.28400000000002,,10.857199999988097,,,,m,999735,Zombie_new,Zombie,space,,m,,1,7.445699999988079,images/zombie56.png
﻿,,,64,,keine schwere Krankheit,60.027612701844106,999735,,,2023.2.2,,,242.8830999999643,,2023-11-02_22h10.51.046,242.88289999997616,,,"Fieber, Hautausschlag",5,42,,2023-11-02_22h10.31.593,,45,,,240.71659999996425,240.71659999996425,,001,,Win32,0,238.2998999999762,,,001,,,,,,,1,,5,266.7257999999523,,23.829199999988077,,,,g,999735,Zombie_new,Zombie,space,,g,,1,1.9106000000238623,images/zombie12.png
﻿,,,64,,MZD,60.027612701844106,999735,,,2023.2.2,,,275.5061999999881,,2023-11-02_22h10.51.046,275.50609999996425,,,"Abszess, Gehirnhautentzündung, Juckreiz",6,24,,2023-11-02_22h10.31.593,,27,,,274.1735,274.17339999997614,,001,,Win32,0,266.7488999999762,,,001,,,,,,,1,,6,294.8498999999762,,19.340499999999963,,,,m,999735,Zombie_new,Zombie,space,,m,,1,6.913800000011918,images/zombie41.png
﻿,,,64,,TS19,60.027612701844106,999735,,,2023.2.2,,,300.4486999999881,,2023-11-02_22h10.51.046,300.4485,,,"Abszess, Fieber, Geschwollene Drüsen, Tränende Augen",7,7,,2023-11-02_22h10.31.593,,10,,,298.7156999999881,298.7155,,001,,Win32,0,294.86869999998805,,,001,,,,,,,1,,7,302.5817999999523,,2.1204000000357155,,,,t,999735,Zombie_new,Zombie,space,,t,,1,3.3245999999642777,images/zombie17.png
﻿,,,65,,TS19,60.027612701844106,999735,,,2023.2.2,,,307.8625,,2023-11-02_22h10.51.046,307.8625,,,"Fieber, Hautausschlag, Tränende Augen",8,11,,2023-11-02_22h10.31.593,,14,,,306.29619999998806,306.2960999999642,,001,,Win32,0,302.58259999996426,,,001,,,,,,,0,,8,323.3741999999881,,15.506599999964237,,,,m,999735,Zombie_new,Zombie,space,,t,,1,3.1967999999523045,images/zombie1.png
﻿,,,64,,keine schwere Krankheit,60.027612701844106,999735,,,2023.2.2,,,329.1225,,2023-11-02_22h10.51.046,329.1225,,,"Abszess, Gehirnhautentzündung",9,43,,2023-11-02_22h10.31.593,,46,,,327.5228999999762,327.5227999999523,,001,,Win32,0,323.39,,,001,,,,,,,1,,9,330.8552999999523,,1.7180999999642381,,,,g,999735,Zombie_new,Zombie,space,,g,,1,3.624600000023804,images/zombie11.png
﻿,,,98,,TS19,60.027612701844106,999735,,,2023.2.2,,,337.8032999999523,,2023-11-02_22h10.51.046,337.8030999999642,,,"Abszess, Fieber, Geschwollene Drüsen, Tränende Augen",10,6,,2023-11-02_22h10.31.593,,9,,,336.4532999999523,336.4532999999523,,001,,Win32,0,330.8560999999642,,,001,,,,,,,1,,10,339.06939999997616,,1.2539999999999623,,,,t,999735,Zombie_new,Zombie,space,,t,,1,5.074199999988082,images/zombie44.png
﻿,,,64,,MZD,60.027612701844106,999735,,,2023.2.2,,,348.93289999997614,,2023-11-02_22h10.51.046,348.93289999997614,,,"Abszess, Gehirnhautentzündung,Geschwollene Drüsen, Verstopfung",11,20,,2023-11-02_22h10.31.593,,23,,,347.40189999997614,347.4017999999523,,001,,Win32,0,339.07029999995234,,,001,,,,,,,0,,11,371.3931999999881,,22.447199999988072,,,,g,999735,Zombie_new,Zombie,space,,m,,1,7.813799999952266,images/zombie22.png
﻿,,,65,,keine schwere Krankheit,60.027612701844106,999735,,,2023.2.2,,,379.007,,2023-11-02_22h10.51.046,379.00689999997616,,,"Gehirnhautentzündung, Hautausschlag",12,47,,2023-11-02_22h10.31.593,,50,,,376.54089999997615,376.54089999997615,,001,,Win32,0,371.41189999997613,,,001,,,,,,,1,,12,379.99,,0.973400000035781,,,,g,999735,Zombie_new,Zombie,space,,g,,1,4.607399999976167,images/zombie49.png
﻿,,,64,,MZD,60.027612701844106,999735,,,2023.2.2,,,386.9715999999642,,2023-11-02_22h10.51.046,386.9715999999642,,,"Abszess, Fieber, Gehirnhautentzündung, Hautausschlag",13,18,,2023-11-02_22h10.31.593,,21,,,385.2215,385.2215,,001,,Win32,0,379.99069999998807,,,001,,,,,,,0,,13,396.56819999998805,,9.587899999976116,,,,t,999735,Zombie_new,Zombie,space,,m,,1,4.707499999999982,images/zombie59.png
﻿,,,98,,keine schwere Krankheit,60.027612701844106,999735,,,2023.2.2,,,399.75079999995233,,2023-11-02_22h10.51.046,399.7505,,,"Fieber, Hautausschlag",14,41,,2023-11-02_22h10.31.593,,44,,,398.23409999996426,398.234,,001,,Win32,0,396.585,,,001,,,,,,,1,,14,401.1172999999523,,1.3548999999761122,,,,g,999735,Zombie_new,Zombie,space,,g,,1,1.1318000000119355,images/zombie14.png
﻿,,,64,,TS19,60.027612701844106,999735,,,2023.2.2,,,411.4967999999523,,2023-11-02_22h10.51.046,411.4966999999881,,,"Abszess, Juckreiz,Verstopfung,Tränende Augen",15,14,,2023-11-02_22h10.31.593,,17,,,409.98039999997616,409.9802999999523,,001,,Win32,0,401.11879999995233,,,001,,,,,,,0,,15,413.0135,,1.5045999999642277,,,,m,999735,Zombie_new,Zombie,space,,t,,1,8.339899999976183,images/zombie23.png
﻿,,,65,,MZD,60.027612701844106,999735,,,2023.2.2,,,417.64479999995234,,2023-11-02_22h10.51.046,417.64469999998806,,,"Abszess, Gehirnhautentzündung, Hautausschlag, Juckreiz",16,30,,2023-11-02_22h10.31.593,,33,,,416.2455999999642,416.2455,,001,,Win32,0,413.0141999999881,,,001,,,,,,,0,,16,418.81159999996424,,1.1613999999761404,,,,t,999735,Zombie_new,Zombie,space,,m,,1,2.7101000000238855,images/zombie10.png
﻿,,,64,,MZD,60.027612701844106,999735,,,2023.2.2,,,428.908,,2023-11-02_22h10.51.046,428.90789999997617,,,"Gehirnhautentzündung, Geschwollene Drüsen, Hautausschlag, Juckreiz",17,25,,2023-11-02_22h10.31.593,,28,,,427.5588999999762,427.55869999998805,,001,,Win32,0,418.8125999999642,,,001,,,,,,,1,,17,429.6745,,0.7561999999880413,,,,m,999735,Zombie_new,Zombie,space,,m,,1,8.22399999999999,images/zombie4.png
﻿,,,65,,MZD,60.027612701844106,999735,,,2023.2.2,,,436.28959999996425,,2023-11-02_22h10.51.046,436.2895,,,"Gehirnhautentzündung, Geschwollene Drüsen, Juckreiz",18,32,,2023-11-02_22h10.31.593,,35,,,434.7397999999523,434.7396999999881,,001,,Win32,0,429.67539999997615,,,001,,,,,,,0,,18,437.2397999999523,,0.9452999999523399,,,,t,999735,Zombie_new,Zombie,space,,m,,1,4.542699999988088,images/zombie57.png
﻿,,,98,,TS19,60.027612701844106,999735,,,2023.2.2,,,441.2040999999642,,2023-11-02_22h10.51.046,441.204,,,"Fieber, Tränende Augen",19,13,,2023-11-02_22h10.31.593,,16,,,439.455,439.455,,001,,Win32,0,437.24089999997614,,,001,,,,,,,0,,19,455.7662999999523,,14.550599999964277,,,,g,999735,Zombie_new,Zombie,space,,t,,1,1.6935000000000286,images/zombie42.png
﻿,,,97,,MZD,60.027612701844106,999735,,,2023.2.2,,,461.532,,2023-11-02_22h10.51.046,461.532,,,"Abszess, Gehirnhautentzündung, Juckreiz",20,28,,2023-11-02_22h10.31.593,,31,,,459.6816999999881,459.68159999996425,,001,,Win32,0,455.78089999997616,,,001,,,,,,,1,,20,462.31579999995233,,0.7744999999999891,,,,m,999735,Zombie_new,Zombie,space,,m,,1,3.3913000000118814,images/zombie18.png
﻿,,,33,,TS19,60.027612701844106,999735,,,2023.2.2,,,476.89339999997617,,2023-11-02_22h10.51.046,476.8932999999523,,,"Fieber, Gehirnhautentzündung, Geschwollene Drüsen, Hautausschlag",21,1,,2023-11-02_22h10.31.593,,4,,,474.9102999999523,474.9101999999881,,001,,Win32,0,462.3177999999523,,,001,,,,,,,0,,21,478.4922999999523,,1.5913000000119268,,,,g,999735,Zombie_new,Zombie,space,,t,,1,12.071300000011945,images/zombie19.png
﻿,,,64,,keine schwere Krankheit,60.027612701844106,999735,,,2023.2.2,,,483.8741999999881,,2023-11-02_22h10.51.046,483.874,,,"Abszess, Tränende Augen",22,53,,2023-11-02_22h10.31.593,,56,,,481.9913999999762,481.9913999999762,,001,,Win32,0,478.4930999999642,,,001,,,,,,,1,,22,484.9905999999642,,1.1055999999642268,,,,g,999735,Zombie_new,Zombie,space,,g,,1,2.9818999999761218,images/zombie30.png
﻿,,,64,,MZD,60.027612701844106,999735,,,2023.2.2,,,488.707,,2023-11-02_22h10.51.046,488.7067999999523,,,"Abszess, Juckreiz, Verstopfung ",23,35,,2023-11-02_22h10.31.593,,38,,,487.6755999999642,487.67539999997615,,001,,Win32,0,484.99129999995233,,,001,,,,,,,1,,23,489.54099999999994,,0.8229999999999791,,,,m,999735,Zombie_new,Zombie,space,,m,,1,2.166999999999973,images/zombie39.png
﻿,,,97,,keine schwere Krankheit,60.027612701844106,999735,,,2023.2.2,,,494.6547999999522,,2023-11-02_22h10.51.046,494.6544999999999,,,"Juckreiz,Verstopfung",24,50,,2023-11-02_22h10.31.593,,53,,,493.089699999988,493.08939999997614,,001,,Win32,0,489.54200000000003,,,001,,,,,,,1,,24,495.55509999996417,,0.8931000000237646,,,,g,999735,Zombie_new,Zombie,space,,g,,1,3.0249999999999204,images/zombie34.png
﻿,,,99,,TS19,60.027612701844106,999735,,,2023.2.2,,,501.152199999988,,2023-11-02_22h10.51.046,501.15209999996415,,,"Abszess, Fieber, Verstopfung,Tränende Augen",25,12,,2023-11-02_22h10.31.593,,15,,,499.8705999999642,499.8701999999881,,001,,Win32,0,495.5573999999761,,,001,,,,,,,1,,25,501.969699999988,,0.8093999999762218,,,,t,999735,Zombie_new,Zombie,space,,t,,1,3.7934999999999945,images/zombie40.png
﻿,,,97,,keine schwere Krankheit,60.027612701844106,999735,,,2023.2.2,,,507.8999999999999,,2023-11-02_22h10.51.046,507.8999999999999,,,"Abszess, Geschwollene Drüsen, Juckreiz",26,48,,2023-11-02_22h10.31.593,,51,,,506.86859999996415,506.8682999999523,,001,,Win32,0,501.97169999998806,,,001,,,,,,,0,,26,508.7852999999522,,0.8771999999880791,,,,m,999735,Zombie_new,Zombie,space,,g,,1,4.37940000003573,images/zombie21.png
﻿,,,65,,MZD,60.027612701844106,999735,,,2023.2.2,,,514.8990999999643,,2023-11-02_22h10.51.046,514.8990999999643,,,"Gehirnhautentzündung, Juckreiz",27,31,,2023-11-02_22h10.31.593,,34,,,513.6327999999523,513.6325,,001,,Win32,0,508.786699999988,,,001,,,,,,,1,,27,524.1472999999523,,9.236900000035803,,,,m,999735,Zombie_new,Zombie,space,,m,,1,4.3271999999881245,images/zombie2.png
﻿,,,65,,TS19,60.027612701844106,999735,,,2023.2.2,,,529.5601999999881,,2023-11-02_22h10.51.046,529.56,,,"Abszess, Fieber, Gehirnhautentzündung, Tränende Augen",28,4,,2023-11-02_22h10.31.593,,7,,,528.5613999999762,528.5610999999642,,001,,Win32,0,524.185,,,001,,,,,,,0,,28,532.6945,,3.1240000000000236,,,,m,999735,Zombie_new,Zombie,space,,t,,1,3.8603000000118755,images/zombie20.png
﻿,,,65,,keine schwere Krankheit,60.027612701844106,999735,,,2023.2.2,,,536.1415999999642,,2023-11-02_22h10.51.046,536.1413999999761,,,"Gehirnhautentzündung, Hautausschlag",29,46,,2023-11-02_22h10.31.593,,49,,,534.9095999999643,534.9090999999643,,001,,Win32,0,532.7290999999642,,,001,,,,,,,1,,29,537.2596999999881,,1.1084000000357719,,,,g,999735,Zombie_new,Zombie,space,,g,,1,1.66159999996421,images/zombie60.png
﻿,,,64,,MZD,60.027612701844106,999735,,,2023.2.2,,,540.8903999999761,,2023-11-02_22h10.51.046,540.8902999999523,,,"Gehirnhautentzündung, Hautausschlag",30,21,,2023-11-02_22h10.31.593,,24,,,539.8250999999642,539.8247999999523,,001,,Win32,0,537.2611999999881,,,001,,,,,,,0,,30,548.6385999999642,,7.741700000047672,,,,g,999735,Zombie_new,Zombie,space,,m,,1,2.0446999999880973,images/zombie28.png
﻿,,,65,,MZD,60.027612701844106,999735,,,2023.2.2,,,553.4027999999523,,2023-11-02_22h10.51.046,553.4027999999523,,,"Abszess, Juckreiz",31,36,,2023-11-02_22h10.31.593,,39,,,551.8875,551.8871999999881,,001,,Win32,0,548.6761999999881,,,001,,,,,,,1,,31,554.4206999999881,,1.0088999999761654,,,,m,999735,Zombie_new,Zombie,space,,m,,1,2.6941999999880863,images/zombie24.png
﻿,,,98,,MZD,60.027612701844106,999735,,,2023.2.2,,,562.1332999999523,,2023-11-02_22h10.51.046,562.1332999999523,,,"Abszess, Gehirnhautentzündung, Juckreiz, Tränende Augen",32,27,,2023-11-02_22h10.31.593,,30,,,560.8847999999523,560.8845,,001,,Win32,0,554.4223999999762,,,001,,,,,,,1,,32,562.984699999988,,0.8433999999762136,,,,m,999735,Zombie_new,Zombie,space,,m,,1,5.942300000011983,images/zombie35.png
﻿,,,64,,TS19,60.027612701844106,999735,,,2023.2.2,,,583.9598999999762,,2023-11-02_22h10.51.046,583.9596999999881,,,"Abszess, Geschwollene Drüsen, Tränende Augen",33,15,,2023-11-02_22h10.31.593,,18,,,581.8946999999881,581.8945,,001,,Win32,0,562.9865,,,001,,,,,,,0,,33,584.7772999999523,,0.8093000000119446,,,,g,999735,Zombie_new,Zombie,space,,t,,1,18.39250000000004,images/zombie3.png
﻿,,,66,,MZD,60.027612701844106,999735,,,2023.2.2,,,589.0918999999761,,2023-11-02_22h10.51.046,589.0917999999523,,,"Abszess, Fieber, Gehirnhautentzündung, Juckreiz",34,22,,2023-11-02_22h10.31.593,,25,,,588.0928999999761,588.0927999999523,,001,,Win32,0,584.7793999999761,,,001,,,,,,,1,,34,589.9597999999523,,0.8578000000119346,,,,m,999735,Zombie_new,Zombie,space,,m,,1,2.7956999999880736,images/zombie58.png
﻿,,,97,,keine schwere Krankheit,60.027612701844106,999735,,,2023.2.2,,,593.807199999988,,2023-11-02_22h10.51.046,593.8070999999642,,,"Gehirnhautentzündung,Geschwollene Drüsen",35,44,,2023-11-02_22h10.31.593,,47,,,592.3255,592.3251999999881,,001,,Win32,0,589.9607999999523,,,001,,,,,,,1,,35,594.525,,0.7081000000238191,,,,g,999735,Zombie_new,Zombie,space,,g,,1,1.84439999997619,images/zombie47.png
﻿,,,65,,MZD,60.027612701844106,999735,,,2023.2.2,,,602.2540999999642,,2023-11-02_22h10.51.046,602.254,,,"Abszess, Gehirnhautentzündung,Tränende Augen",36,19,,2023-11-02_22h10.31.593,,22,,,600.9577999999523,600.9573999999761,,001,,Win32,0,594.5266999999881,,,001,,,,,,,1,,36,602.8385999999642,,0.5771000000238473,,,,m,999735,Zombie_new,Zombie,space,,m,,1,5.914499999999975,images/zombie36.png
﻿,,,64,,MZD,60.027612701844106,999735,,,2023.2.2,,,612.0676999999881,,2023-11-02_22h10.51.046,612.0675999999643,,,"Fieber, Gehirnhautentzündung, Juckreiz, Verstopfung",37,23,,2023-11-02_22h10.31.593,,26,,,610.8187999999523,610.8185,,001,,Win32,0,602.8403999999762,,,001,,,,,,,0,,37,613.2360999999643,,1.1596000000238291,,,,t,999735,Zombie_new,Zombie,space,,m,,1,7.461500000000001,images/zombie51.png
﻿,,,99,,keine schwere Krankheit,60.027612701844106,999735,,,2023.2.2,,,616.8495999999642,,2023-11-02_22h10.51.046,616.8495999999642,,,Tränende Augen,38,55,,2023-11-02_22h10.31.593,,58,,,614.8012999999523,614.8011999999881,,001,,Win32,0,613.2376999999881,,,001,,,,,,,1,,38,617.484699999988,,0.6253000000119755,,,,g,999735,Zombie_new,Zombie,space,,g,,1,1.045100000023922,images/zombie31.png
﻿,,,66,,MZD,60.027612701844106,999735,,,2023.2.2,,,621.4147999999523,,2023-11-02_22h10.51.046,621.4147999999523,,,"Abszess, Geschwollene Drüsen, Juckreiz",39,37,,2023-11-02_22h10.31.593,,40,,,620.1661999999881,620.1659999999999,,001,,Win32,0,617.4865999999643,,,001,,,,,,,0,,39,621.9161999999881,,0.4931999999881782,,,,t,999735,Zombie_new,Zombie,space,,m,,1,2.165599999964229,images/zombie7.png
﻿,,,64,,keine schwere Krankheit,60.027612701844106,999735,,,2023.2.2,,,626.9630999999642,,2023-11-02_22h10.51.046,626.963,,,"Juckreiz,Verstopfung",40,49,,2023-11-02_22h10.31.593,,52,,,625.6812999999523,625.6808999999762,,001,,Win32,0,621.9180999999643,,,001,,,,,,,1,,40,627.4973999999762,,0.5258999999761045,,,,g,999735,Zombie_new,Zombie,space,,g,,1,3.244000000000028,images/zombie33.png
﻿,,,99,,TS19,60.027612701844106,999735,,,2023.2.2,,,631.0617999999523,,2023-11-02_22h10.51.046,631.0617999999523,,,"Verstopfung, Tränende Augen",41,17,,2023-11-02_22h10.31.593,,20,,,629.9628999999761,629.9627999999523,,001,,Win32,0,627.4993999999762,,,001,,,,,,,0,,41,631.5800999999642,,0.5086000000237618,,,,g,999735,Zombie_new,Zombie,space,,t,,1,1.9467999999523045,images/zombie32.png
﻿,,,65,,TS19,60.027612701844106,999735,,,2023.2.2,,,639.792699999988,,2023-11-02_22h10.51.046,639.792699999988,,,"Abszess, Fieber, Tränende Augen",42,10,,2023-11-02_22h10.31.593,,13,,,637.4275999999643,637.4273999999762,,001,,Win32,0,631.5815,,,001,,,,,,,1,,42,640.326699999988,,0.5275000000000318,,,,t,999735,Zombie_new,Zombie,space,,t,,1,5.3268000000119855,images/zombie9.png
﻿,,,64,,keine schwere Krankheit,60.027612701844106,999735,,,2023.2.2,,,650.605699999988,,2023-11-02_22h10.51.046,650.605699999988,,,"Abszess, Fieber",43,39,,2023-11-02_22h10.31.593,,42,,,649.5232999999523,649.5232999999523,,001,,Win32,0,640.329,,,001,,,,,,,1,,43,651.0240999999643,,0.40769999998803996,,,,g,999735,Zombie_new,Zombie,space,,g,,1,8.680500000000052,images/zombie55.png
﻿,,,98,,keine schwere Krankheit,60.027612701844106,999735,,,2023.2.2,,,656.5872999999523,,2023-11-02_22h10.51.046,656.5871999999881,,,"Gehirnhautentzündung, Verstopfung",44,45,,2023-11-02_22h10.31.593,,48,,,655.0558999999762,655.0552999999524,,001,,Win32,0,651.025,,,001,,,,,,,1,,44,657.0727999999523,,0.47669999998811363,,,,g,999735,Zombie_new,Zombie,space,,g,,1,3.5103000000118527,images/zombie54.png
﻿,,,98,,keine schwere Krankheit,60.027612701844106,999735,,,2023.2.2,,,659.6366999999881,,2023-11-02_22h10.51.046,659.6365999999642,,,"Juckreiz,Verstopfung",45,52,,2023-11-02_22h10.31.593,,55,,,658.671,658.6706999999881,,001,,Win32,0,657.0741999999881,,,001,,,,,,,1,,45,660.0871999999881,,0.44299999999998363,,,,g,999735,Zombie_new,Zombie,space,,g,,1,1.0781000000238237,images/zombie8.png
﻿,,,65,,TS19,60.027612701844106,999735,,,2023.2.2,,,665.3847999999523,,2023-11-02_22h10.51.046,665.3846999999881,,,"Abszess, Fieber, Hautausschlag, Tränende Augen",46,8,,2023-11-02_22h10.31.593,,11,,,664.052199999988,664.052,,001,,Win32,0,660.0891999999881,,,001,,,,,,,1,,46,665.8852999999523,,0.49219999998808817,,,,t,999735,Zombie_new,Zombie,space,,t,,1,3.4436000000239346,images/zombie13.png
﻿,,,98,,keine schwere Krankheit,60.027612701844106,999735,,,2023.2.2,,,669.3345999999642,,2023-11-02_22h10.51.046,669.3345,,,"Juckreiz,Verstopfung",47,51,,2023-11-02_22h10.31.593,,54,,,668.201199999988,668.2008999999762,,001,,Win32,0,665.8870999999642,,,001,,,,,,,1,,47,669.7340999999642,,0.3911999999880891,,,,g,999735,Zombie_new,Zombie,space,,g,,1,1.7947999999523745,images/zombie48.png
﻿,,,99,,TS19,60.027612701844106,999735,,,2023.2.2,,,677.3806999999881,,2023-11-02_22h10.51.046,677.3805999999643,,,"Abszess, Fieber, Tränende Augen",48,9,,2023-11-02_22h10.31.593,,12,,,675.6983999999761,675.6983999999761,,001,,Win32,0,669.7368999999761,,,001,,,,,,,1,,48,678.2155,,0.8253999999760708,,,,t,999735,Zombie_new,Zombie,space,,t,,1,5.446399999976165,images/zombie6.png
﻿,,,99,,MZD,60.027612701844106,999735,,,2023.2.2,,,681.8795,,2023-11-02_22h10.51.046,681.8795,,,"Abszess, Fieber, Juckreiz, Tränende Augen",49,34,,2023-11-02_22h10.31.593,,37,,,680.7472999999524,680.7471999999881,,001,,Win32,0,678.2175,,,001,,,,,,,0,,49,682.7138999999762,,0.8224000000357137,,,,t,999735,Zombie_new,Zombie,space,,m,,1,2.0103000000118527,images/zombie43.png
﻿,,,98,,keine schwere Krankheit,60.027612701844106,999735,,,2023.2.2,,,690.2270999999643,,2023-11-02_22h10.51.046,690.2270999999643,,,"Geschwollene Drüsen, Tränende Augen",50,54,,2023-11-02_22h10.31.593,,57,,,688.4281999999881,688.428,,001,,Win32,0,682.7148999999762,,,001,,,,,,,1,,50,690.9272999999523,,0.6960000000000264,,,,g,999735,Zombie_new,Zombie,space,,g,,1,5.192999999999984,images/zombie25.png
﻿,,,97,,keine schwere Krankheit,60.027612701844106,999735,,,2023.2.2,,,698.2578999999762,,2023-11-02_22h10.51.046,698.2577999999523,,,"Geschwollene Drüsen, Tränende Augen",51,56,,2023-11-02_22h10.31.593,,59,,,695.6593999999761,695.6590999999643,,001,,Win32,0,690.9300999999642,,,001,,,,,,,1,,51,698.792199999988,,0.5271999999880563,,,,g,999735,Zombie_new,Zombie,space,,g,,1,4.210499999999911,images/zombie38.png
﻿,,,65,,keine schwere Krankheit,60.027612701844106,999735,,,2023.2.2,,,707.0880999999642,,2023-11-02_22h10.51.046,707.088,,,"Abszess, Fieber, Hautausschlag",52,38,,2023-11-02_22h10.31.593,,41,,,704.6398999999761,704.6396999999881,,001,,Win32,0,698.7937999999523,,,001,,,,,,,0,,52,708.3735,,1.2805999999642381,,,,t,999735,Zombie_new,Zombie,space,,g,,1,5.3284000000356855,images/zombie5.png
﻿,,,65,,keine schwere Krankheit,60.027612701844106,999735,,,2023.2.2,,,711.7032999999523,,2023-11-02_22h10.51.046,711.7032999999523,,,"Fieber, Geschwollene Drüsen",53,40,,2023-11-02_22h10.31.593,,43,,,710.4715,710.4713999999761,,001,,Win32,0,708.3753999999761,,,001,,,,,,,1,,53,712.8378999999761,,1.126199999987989,,,,g,999735,Zombie_new,Zombie,space,,g,,1,1.5779999999999745,images/zombie52.png
﻿,,,97,,TS19,60.027612701844106,999735,,,2023.2.2,,,717.234699999988,,2023-11-02_22h10.51.046,717.234699999988,,,"Abszess, Gehirnhautentzündung, Tränende Augen",54,16,,2023-11-02_22h10.31.593,,19,,,715.3370999999643,715.3362999999523,,001,,Win32,0,712.8392999999523,,,001,,,,,,,1,,54,718.9195999999642,,1.6758999999761954,,,,t,999735,Zombie_new,Zombie,space,,t,,1,1.9773999999762282,images/zombie53.png
﻿,,,97,,TS19,60.027612701844106,999735,,,2023.2.2,,,728.4980999999642,,2023-11-02_22h10.51.046,728.498,,,"Fieber, Juckreiz,Tränende Augen",55,3,,2023-11-02_22h10.31.593,,6,,,726.8162999999523,726.8160999999642,,001,,Win32,0,718.9208999999762,,,001,,,,,,,1,,55,729.1495999999643,,0.6426999999880536,,,,t,999735,Zombie_new,Zombie,space,,t,,1,7.375999999999976,images/zombie16.png
﻿,,,63,,MZD,60.027612701844106,999735,,,2023.2.2,,,733.6131999999881,,2023-11-02_22h10.51.046,733.6131999999881,,,"Gehirnhautentzündung, Juckreiz, Verstopfung",56,33,,2023-11-02_22h10.31.593,,36,,,732.547699999988,732.5475999999642,,001,,Win32,0,729.1510999999642,,,001,,,,,,,1,,56,734.0971999999881,,0.4753999999761618,,,,m,999735,Zombie_new,Zombie,space,,m,,1,2.8780000000000427,images/zombie37.png
﻿,,,97,,keine schwere Krankheit,60.027612701844106,999735,,,2023.2.2,,,738.0285,,2023-11-02_22h10.51.046,738.0282999999523,,,Tränende Augen,57,57,,2023-11-02_22h10.31.593,,60,,,735.6465999999642,735.6463999999762,,001,,Win32,0,734.0995999999642,,,001,,,,,,,1,,57,739.296699999988,,1.2593999999762673,,,,g,999735,Zombie_new,Zombie,space,,g,,1,1.0275000000000318,images/zombie15.png
﻿,,,,749.2950999999642,,60.027612701844106,999735,,,2023.2.2,,,,,2023-11-02_22h10.51.046,,,,,,,,2023-11-02_22h10.31.593,,,,,,,,001,,Win32,,,,,001,,,,,,,,,,,,,,,739.2993999999761,,999735,Zombie_new,Zombie,,,,,,,
﻿,29.514999999999986,,,,,60.024009603724096,708716,,,2023.2.2,,,,0,2023-11-03_11h23.26.994,,,29.485000000000014,,,,,2023-11-03_11h12.14.517,,,,,,,space,001,,Win32,,,,,001,,,,,,,,,,,,,,,,,708716,Zombie_new,Zombie,,,,,,,
﻿,,,,,,60.024009603724096,708716,,,2023.2.2,,,,,2023-11-03_11h23.26.994,,,,,,,,2023-11-03_11h12.14.517,,,30.515999999999963,,,,,001,,Win32,,,,29.514999999999986,001,,,,,,,,,,,,,,,,,708716,Zombie_new,Zombie,,,,,,,
﻿30.515999999999963,,,,,,60.024009603724096,708716,,,2023.2.2,,19.08699999999999,,,2023-11-03_11h23.26.994,,,,,,,,2023-11-03_11h12.14.517,,,,,,,,001,49.63199999999995,Win32,,,,,001,space,,,,,,,,,,,,,,,,708716,Zombie_new,Zombie,,,,,,,
﻿,,31.463999999999942,,,,60.024009603724096,708716,,,2023.2.2,,,,,2023-11-03_11h23.26.994,,,,,,,,2023-11-03_11h12.14.517,,,,,,,,001,,Win32,,,,,001,,,,,,,,,,,,,,space,,,708716,Zombie_new,Zombie,,49.63300000000004,,81.13300000000004,,,
﻿,,,,,,60.024009603724096,708716,,81.13400000000001,2023.2.2,,,,,2023-11-03_11h23.26.994,,86.36500000000001,,,,,5.203999999999951,2023-11-03_11h12.14.517,,,,,,,,001,,Win32,,,,,001,,,,s,,,,,,,,,,,,,708716,Zombie_new,Zombie,,,,,,,
﻿,,,,,,60.024009603724096,708716,6.88900000000001,,2023.2.2,z,,,,2023-11-03_11h23.26.994,,,,,,,,2023-11-03_11h12.14.517,,,,86.36500000000001,,,,001,,Win32,,,93.28099999999995,,001,,,,,,,,,,,,,,,,,708716,Zombie_new,Zombie,,,,,,,
﻿,,,,,,60.024009603724096,708716,,,2023.2.2,,,,,2023-11-03_11h23.26.994,,,,,,,,2023-11-03_11h12.14.517,93.28099999999995,,,,,,,001,,Win32,,,,,001,,10.041000000000054,,,,,,d,,,,,103.35000000000002,,,,708716,Zombie_new,Zombie,,,,,,,
﻿,,,,,,60.024009603724096,708716,,,2023.2.2,,,,,2023-11-03_11h23.26.994,,,,,,,,2023-11-03_11h12.14.517,,,,,,,,001,,Win32,,,,,001,,,140.99799999999993,,37.625,103.35000000000002,,,,,space,,,,,,708716,Zombie_new,Zombie,,,,,,,
﻿,,,66,,keine schwere Krankheit,60.024009603724096,708716,,,2023.2.2,,,199.84799999999996,,2023-11-03_11h23.26.994,199.84799999999996,,,"Abszess, Fieber, Hautausschlag",0,38,,2023-11-03_11h12.14.517,,41,,,169.365,169.365,,001,,Win32,0,141.01300000000003,,,001,,,,,,,0,,0,222.43099999999993,,22.57400000000007,,,,t,708716,Zombie_new,Zombie,space,,g,,1,27.841000000000008,images/zombie5.png
﻿,,,66,,keine schwere Krankheit,60.024009603724096,708716,,,2023.2.2,,,239.09899999999993,,2023-11-03_11h23.26.994,239.09799999999996,,,"Juckreiz,Verstopfung",1,49,,2023-11-03_11h12.14.517,,52,,,233.76699999999994,233.76599999999996,,001,,Win32,0,222.43099999999993,,,001,,,,,,,1,,1,256.148,,17.04099999999994,,,,g,708716,Zombie_new,Zombie,space,,g,,1,10.827000000000112,images/zombie33.png
﻿,,,66,,keine schwere Krankheit,60.024009603724096,708716,,,2023.2.2,,,269.148,,2023-11-03_11h23.26.994,269.148,,,"Fieber, Hautausschlag",2,41,,2023-11-03_11h12.14.517,,44,,,266.31499999999994,266.31499999999994,,001,,Win32,0,256.148,,,001,,,,,,,1,,2,280.249,,11.087999999999965,,,,g,708716,Zombie_new,Zombie,space,,g,,1,9.657999999999902,images/zombie14.png
﻿,,,66,,MZD,60.024009603724096,708716,,,2023.2.2,,,304.24699999999996,,2023-11-03_11h23.26.994,304.24699999999996,,,"Fieber, Gehirnhautentzündung, Juckreiz, Verstopfung",3,23,,2023-11-03_11h12.14.517,,26,,,302.13199999999995,302.131,,001,,Win32,0,280.25,,,001,,,,,,,0,,3,330.198,,25.948999999999955,,,,t,708716,Zombie_new,Zombie,space,,m,,1,21.361999999999966,images/zombie51.png
﻿,,,33,,keine schwere Krankheit,60.024009603724096,708716,,,2023.2.2,,,343.115,,2023-11-03_11h23.26.994,343.11400000000003,,,"Abszess, Tränende Augen",4,53,,2023-11-03_11h12.14.517,,56,,,339.84899999999993,339.84799999999996,,001,,Win32,0,330.19899999999996,,,001,,,,,,,1,,4,348.148,,5.023000000000025,,,,g,708716,Zombie_new,Zombie,space,,g,,1,9.131000000000085,images/zombie30.png
﻿,,,66,,MZD,60.024009603724096,708716,,,2023.2.2,,,359.831,,2023-11-03_11h23.26.994,359.831,,,"Gehirnhautentzündung, Juckreiz",5,31,,2023-11-03_11h12.14.517,,34,,,355.4809999999999,355.4809999999999,,001,,Win32,0,348.149,,,001,,,,,,,1,,5,370.8649999999999,,11.028999999999996,,,,m,708716,Zombie_new,Zombie,space,,m,,1,6.805999999999926,images/zombie2.png
﻿,,,66,,MZD,60.024009603724096,708716,,,2023.2.2,,,384.514,,2023-11-03_11h23.26.994,384.514,,,"Abszess, Juckreiz, Verstopfung ",6,35,,2023-11-03_11h12.14.517,,38,,,382.7309999999999,382.7309999999999,,001,,Win32,0,370.8659999999999,,,001,,,,,,,0,,6,393.198,,8.674999999999955,,,,g,708716,Zombie_new,Zombie,space,,m,,1,11.345000000000027,images/zombie39.png
﻿,,,66,,TS19,60.024009603724096,708716,,,2023.2.2,,,436.6139999999999,,2023-11-03_11h23.26.994,436.6139999999999,,,"Fieber, Juckreiz,Tränende Augen",7,3,,2023-11-03_11h12.14.517,,6,,,434.84800000000007,434.84800000000007,,001,,Win32,0,393.19899999999996,,,001,,,,,,,0,,7,447.34800000000007,,10.723999999999933,,,,g,708716,Zombie_new,Zombie,space,,t,,1,41.131999999999834,images/zombie16.png
﻿,,,33,,keine schwere Krankheit,60.024009603724096,708716,,,2023.2.2,,,478.398,,2023-11-03_11h23.26.994,478.39700000000005,,,"Fieber, Geschwollene Drüsen",8,40,,2023-11-03_11h12.14.517,,43,,,474.9989999999999,474.9989999999999,,001,,Win32,0,447.34900000000005,,,001,,,,,,,0,,8,482.831,,4.429000000000087,,,,t,708716,Zombie_new,Zombie,space,,g,,1,27.125,images/zombie52.png
﻿,,,66,,MZD,60.024009603724096,708716,,,2023.2.2,,,500.648,,2023-11-03_11h23.26.994,500.648,,,"Abszess, Gehirnhautentzündung,Geschwollene Drüsen, Verstopfung",9,20,,2023-11-03_11h12.14.517,,23,,,497.6159999999999,497.6149999999999,,001,,Win32,0,482.832,,,001,,,,,,,1,,9,514.1809999999999,,13.521999999999935,,,,m,708716,Zombie_new,Zombie,space,,m,,1,14.265999999999849,images/zombie22.png
﻿,,,33,,keine schwere Krankheit,60.024009603724096,708716,,,2023.2.2,,,519.948,,2023-11-03_11h23.26.994,519.948,,,"Abszess, Fieber",10,39,,2023-11-03_11h12.14.517,,42,,,517.8480000000001,517.8480000000001,,001,,Win32,0,514.1819999999999,,,001,,,,,,,1,,10,523.8480000000001,,3.8890000000001237,,,,g,708716,Zombie_new,Zombie,space,,g,,1,3.1410000000000764,images/zombie55.png
﻿,,,66,,TS19,60.024009603724096,708716,,,2023.2.2,,,534.6650000000001,,2023-11-03_11h23.26.994,534.6639999999999,,,"Verstopfung, Tränende Augen",11,17,,2023-11-03_11h12.14.517,,20,,,531.766,531.766,,001,,Win32,0,523.849,,,001,,,,,,,0,,11,542.4139999999999,,7.746999999999844,,,,g,708716,Zombie_new,Zombie,space,,t,,1,7.3940000000000055,images/zombie32.png
﻿,,,66,,MZD,60.024009603724096,708716,,,2023.2.2,,,548.2810000000001,,2023-11-03_11h23.26.994,548.2800000000001,,,"Abszess, Fieber, Gehirnhautentzündung, Hautausschlag",12,18,,2023-11-03_11h12.14.517,,21,,,546.698,546.698,,001,,Win32,0,542.4150000000001,,,001,,,,,,,0,,12,563.7479999999999,,15.45699999999988,,,,t,708716,Zombie_new,Zombie,space,,m,,1,3.76299999999992,images/zombie59.png
﻿,,,33,,MZD,60.024009603724096,708716,,,2023.2.2,,,574.9139999999999,,2023-11-03_11h23.26.994,574.9139999999999,,,"Abszess, Fieber, Gehirnhautentzündung, Juckreiz",13,22,,2023-11-03_11h12.14.517,,25,,,571.831,571.831,,001,,Win32,0,563.7489999999999,,,001,,,,,,,1,,13,587.398,,12.473000000000184,,,,m,708716,Zombie_new,Zombie,space,,m,,1,7.558999999999969,images/zombie58.png
﻿,,,66,,MZD,60.024009603724096,708716,,,2023.2.2,,,597.2810000000001,,2023-11-03_11h23.26.994,597.2810000000001,,,"Abszess, Fieber, Juckreiz, Tränende Augen",14,34,,2023-11-03_11h12.14.517,,37,,,594.8470000000001,594.8470000000001,,001,,Win32,0,587.399,,,001,,,,,,,0,,14,615.4999999999999,,18.205999999999904,,,,t,708716,Zombie_new,Zombie,space,,m,,1,6.930000000000064,images/zombie43.png
﻿,,,66,,TS19,60.024009603724096,708716,,,2023.2.2,,,627.132,,2023-11-03_11h23.26.994,627.131,,,"Abszess, Fieber, Gehirnhautentzündung, Tränende Augen",15,4,,2023-11-03_11h12.14.517,,7,,,625.6139999999999,625.6139999999999,,001,,Win32,0,615.5010000000001,,,001,,,,,,,0,,15,627.3629999999999,,0.22199999999998,,,,m,708716,Zombie_new,Zombie,space,,t,,1,9.589999999999918,images/zombie20.png
﻿,,,34,,MZD,60.024009603724096,708716,,,2023.2.2,,,649.0310000000001,,2023-11-03_11h23.26.994,649.0300000000001,,,"Gehirnhautentzündung, Juckreiz, Verstopfung",16,33,,2023-11-03_11h12.14.517,,36,,,647.099,647.099,,001,,Win32,0,627.3649999999999,,,001,,,,,,,1,,16,658.3639999999999,,9.321999999999889,,,,m,708716,Zombie_new,Zombie,space,,m,,1,19.207000000000107,images/zombie37.png
﻿,,,33,,TS19,60.024009603724096,708716,,,2023.2.2,,,666.1809999999999,,2023-11-03_11h23.26.994,666.1809999999999,,,"Abszess, Fieber, Tränende Augen",17,10,,2023-11-03_11h12.14.517,,13,,,662.398,662.398,,001,,Win32,0,658.3639999999999,,,001,,,,,,,0,,17,677.064,,10.879000000000133,,,,g,708716,Zombie_new,Zombie,space,,t,,1,3.5260000000000673,images/zombie9.png
﻿,,,66,,keine schwere Krankheit,60.024009603724096,708716,,,2023.2.2,,,683.014,,2023-11-03_11h23.26.994,683.014,,,"Abszess, Gehirnhautentzündung",18,43,,2023-11-03_11h12.14.517,,46,,,680.5980000000001,680.5980000000001,,001,,Win32,0,677.064,,,001,,,,,,,0,,18,688.38,,5.357999999999947,,,,m,708716,Zombie_new,Zombie,space,,g,,1,3.025000000000091,images/zombie11.png
﻿,,,67,,TS19,60.024009603724096,708716,,,2023.2.2,,,699.93,,2023-11-03_11h23.26.994,699.93,,,"Abszess, Fieber, Verstopfung,Tränende Augen",19,12,,2023-11-03_11h12.14.517,,15,,,698.399,698.398,,001,,Win32,0,688.382,,,001,,,,,,,1,,19,715.1139999999999,,15.177000000000135,,,,t,708716,Zombie_new,Zombie,space,,t,,1,9.492999999999938,images/zombie40.png
﻿,,,66,,keine schwere Krankheit,60.024009603724096,708716,,,2023.2.2,,,727.1139999999999,,2023-11-03_11h23.26.994,727.1139999999999,,,"Geschwollene Drüsen, Tränende Augen",20,54,,2023-11-03_11h12.14.517,,57,,,724.83,724.83,,001,,Win32,0,715.1139999999999,,,001,,,,,,,1,,20,732.4150000000001,,5.290000000000191,,,,g,708716,Zombie_new,Zombie,space,,g,,1,9.19900000000007,images/zombie25.png
﻿,,,66,,MZD,60.024009603724096,708716,,,2023.2.2,,,740.764,,2023-11-03_11h23.26.994,740.763,,,"Abszess, Gehirnhautentzündung,Tränende Augen",21,19,,2023-11-03_11h12.14.517,,22,,,739.198,739.197,,001,,Win32,0,732.418,,,001,,,,,,,0,,21,744.13,,3.3600000000001273,,,,t,708716,Zombie_new,Zombie,space,,m,,1,6.2590000000000146,images/zombie36.png
﻿,,,66,,MZD,60.024009603724096,708716,,,2023.2.2,,,754.264,,2023-11-03_11h23.26.994,754.264,,,"Abszess, Gehirnhautentzündung, Juckreiz",22,28,,2023-11-03_11h12.14.517,,31,,,752.881,752.881,,001,,Win32,0,744.131,,,001,,,,,,,1,,22,762.6139999999999,,8.34699999999998,,,,m,708716,Zombie_new,Zombie,space,,m,,1,8.232999999999947,images/zombie18.png
﻿,,,33,,TS19,60.024009603724096,708716,,,2023.2.2,,,780.764,,2023-11-03_11h23.26.994,780.764,,,"Abszess, Fieber, Geschwollene Drüsen, Tränende Augen",23,7,,2023-11-03_11h12.14.517,,10,,,777.8480000000001,777.8480000000001,,001,,Win32,0,762.6139999999999,,,001,,,,,,,1,,23,791.3629999999999,,10.587999999999965,,,,t,708716,Zombie_new,Zombie,space,,t,,1,14.72400000000016,images/zombie17.png
﻿,,,33,,MZD,60.024009603724096,708716,,,2023.2.2,,,801.93,,2023-11-03_11h23.26.994,801.93,,,"Gehirnhautentzündung, Hautausschlag",24,21,,2023-11-03_11h12.14.517,,24,,,800.2979999999999,800.2979999999999,,001,,Win32,0,791.3639999999999,,,001,,,,,,,1,,24,808.2299999999999,,6.290000000000191,,,,m,708716,Zombie_new,Zombie,space,,m,,1,8.41599999999994,images/zombie28.png
﻿,,,33,,keine schwere Krankheit,60.024009603724096,708716,,,2023.2.2,,,818.6629999999999,,2023-11-03_11h23.26.994,818.6629999999999,,,"Gehirnhautentzündung,Geschwollene Drüsen",25,44,,2023-11-03_11h12.14.517,,47,,,813.83,813.83,,001,,Win32,0,808.2299999999999,,,001,,,,,,,0,,25,823.9630000000001,,5.291000000000167,,,,m,708716,Zombie_new,Zombie,space,,g,,1,5.091000000000122,images/zombie47.png
﻿,,,66,,MZD,60.024009603724096,708716,,,2023.2.2,,,839.314,,2023-11-03_11h23.26.994,839.313,,,"Abszess, Gehirnhautentzündung, Juckreiz, Tränende Augen",26,26,,2023-11-03_11h12.14.517,,29,,,836.698,836.698,,001,,Win32,0,823.9630000000001,,,001,,,,,,,1,,26,849.7130000000001,,10.393000000000029,,,,m,708716,Zombie_new,Zombie,space,,m,,1,12.224999999999909,images/zombie50.png
﻿,,,100,,MZD,60.024009603724096,708716,,,2023.2.2,,,860.314,,2023-11-03_11h23.26.994,860.314,,,"Abszess, Gehirnhautentzündung, Juckreiz",27,24,,2023-11-03_11h12.14.517,,27,,,858.58,858.58,,001,,Win32,0,849.7130000000001,,,001,,,,,,,1,,27,869.514,,9.194999999999936,,,,m,708716,Zombie_new,Zombie,space,,m,,1,8.356999999999971,images/zombie41.png
﻿,,,66,,keine schwere Krankheit,60.024009603724096,708716,,,2023.2.2,,,876.5469999999999,,2023-11-03_11h23.26.994,876.5469999999999,,,"Gehirnhautentzündung, Hautausschlag",28,46,,2023-11-03_11h12.14.517,,49,,,874.18,874.18,,001,,Win32,0,869.516,,,001,,,,,,,0,,28,884.263,,7.708000000000084,,,,m,708716,Zombie_new,Zombie,space,,g,,1,4.142000000000053,images/zombie60.png
﻿,,,66,,TS19,60.024009603724096,708716,,,2023.2.2,,,893.18,,2023-11-03_11h23.26.994,893.18,,,"Abszess, Fieber, Tränende Augen",29,9,,2023-11-03_11h12.14.517,,12,,,892.08,892.08,,001,,Win32,0,884.265,,,001,,,,,,,1,,29,900.3290000000001,,7.1440000000000055,,,,t,708716,Zombie_new,Zombie,space,,t,,1,7.296999999999798,images/zombie6.png
﻿,,,66,,TS19,60.024009603724096,708716,,,2023.2.2,,,909.6129999999999,,2023-11-03_11h23.26.994,909.6129999999999,,,"Abszess, Fieber, Hautausschlag, Tränende Augen",30,8,,2023-11-03_11h12.14.517,,11,,,908.2299999999999,908.2299999999999,,001,,Win32,0,900.332,,,001,,,,,,,1,,30,920.2299999999999,,10.607999999999947,,,,t,708716,Zombie_new,Zombie,space,,t,,1,7.373999999999796,images/zombie13.png
﻿,,,69,,TS19,60.024009603724096,708716,,,2023.2.2,,,930.513,,2023-11-03_11h23.26.994,930.513,,,"Abszess, Fieber, Hautausschlag, Verstopfung",31,0,,2023-11-03_11h12.14.517,,3,,,928.697,928.697,,001,,Win32,0,920.2309999999999,,,001,,,,,,,0,,31,946.4999999999999,,15.974999999999909,,,,m,708716,Zombie_new,Zombie,space,,t,,1,7.942000000000007,images/zombie45.png
﻿,,,66,,MZD,60.024009603724096,708716,,,2023.2.2,,,961.2130000000001,,2023-11-03_11h23.26.994,961.2130000000001,,,"Gehirnhautentzündung, Geschwollene Drüsen, Hautausschlag, Juckreiz",32,25,,2023-11-03_11h12.14.517,,28,,,958.18,958.18,,001,,Win32,0,946.5020000000001,,,001,,,,,,,1,,32,974.9129999999999,,13.69399999999996,,,,m,708716,Zombie_new,Zombie,space,,m,,1,11.157999999999902,images/zombie4.png
﻿,,,33,,keine schwere Krankheit,60.024009603724096,708716,,,2023.2.2,,,982.063,,2023-11-03_11h23.26.994,982.063,,,Tränende Augen,33,57,,2023-11-03_11h12.14.517,,60,,,977.88,977.88,,001,,Win32,0,974.9139999999999,,,001,,,,,,,1,,33,984.946,,2.8769999999999527,,,,g,708716,Zombie_new,Zombie,space,,g,,1,2.4420000000000073,images/zombie15.png
﻿,,,66,,TS19,60.024009603724096,708716,,,2023.2.2,,,1003.179,,2023-11-03_11h23.26.994,1003.179,,,"Abszess, Fieber, Juckreiz, Tränende Augen",34,2,,2023-11-03_11h12.14.517,,5,,,1000.7800000000001,1000.7800000000001,,001,,Win32,0,984.946,,,001,,,,,,,0,,34,1015.5469999999999,,12.361000000000104,,,,m,708716,Zombie_new,Zombie,space,,t,,1,15.327999999999975,images/zombie27.png
﻿,,,100,,MZD,60.024009603724096,708716,,,2023.2.2,,,1023.062,,2023-11-03_11h23.26.994,1023.062,,,"Abszess, Gehirnhautentzündung, Juckreiz",35,29,,2023-11-03_11h12.14.517,,32,,,1021.0959999999999,1021.0959999999999,,001,,Win32,0,1015.5479999999999,,,001,,,,,,,1,,35,1029.7800000000002,,6.710000000000036,,,,m,708716,Zombie_new,Zombie,space,,m,,1,5.030999999999949,images/zombie56.png
﻿,,,66,,TS19,60.024009603724096,708716,,,2023.2.2,,,1036.6950000000002,,2023-11-03_11h23.26.994,1036.6950000000002,,,"Fieber, Tränende Augen",36,13,,2023-11-03_11h12.14.517,,16,,,1034.681,1034.681,,001,,Win32,0,1029.781,,,001,,,,,,,1,,36,1040.897,,4.198000000000093,,,,t,708716,Zombie_new,Zombie,space,,t,,1,4.375,images/zombie42.png
﻿,,,33,,keine schwere Krankheit,60.024009603724096,708716,,,2023.2.2,,,1049.013,,2023-11-03_11h23.26.994,1049.013,,,"Geschwollene Drüsen, Tränende Augen",37,56,,2023-11-03_11h12.14.517,,59,,,1045.763,1045.763,,001,,Win32,0,1040.897,,,001,,,,,,,0,,37,1052.6970000000001,,3.673000000000002,,,,t,708716,Zombie_new,Zombie,space,,g,,1,4.346000000000004,images/zombie38.png
﻿,,,65,,MZD,60.024009603724096,708716,,,2023.2.2,,,1058.08,,2023-11-03_11h23.26.994,1058.08,,,"Abszess, Juckreiz",38,36,,2023-11-03_11h12.14.517,,39,,,1055.7620000000002,1055.7620000000002,,001,,Win32,0,1052.6979999999999,,,001,,,,,,,1,,38,1062.312,,4.222999999999956,,,,m,708716,Zombie_new,Zombie,space,,m,,1,2.546000000000049,images/zombie24.png
﻿,,,73,,TS19,60.024009603724096,708716,,,2023.2.2,,,1085.5459999999998,,2023-11-03_11h23.26.994,1085.5459999999998,,,"Fieber, Gehirnhautentzündung, Geschwollene Drüsen, Hautausschlag",39,1,,2023-11-03_11h12.14.517,,4,,,1084.246,1084.246,,001,,Win32,0,1062.313,,,001,,,,,,,0,,39,1098.48,,12.932000000000016,,,,m,708716,Zombie_new,Zombie,space,,t,,1,21.423999999999978,images/zombie19.png
﻿,,,66,,TS19,60.024009603724096,708716,,,2023.2.2,,,1106.73,,2023-11-03_11h23.26.994,1106.7289999999998,,,"Abszess, Gehirnhautentzündung, Tränende Augen",40,16,,2023-11-03_11h12.14.517,,19,,,1104.681,1104.681,,001,,Win32,0,1098.4809999999998,,,001,,,,,,,0,,40,1117.179,,10.442000000000007,,,,m,708716,Zombie_new,Zombie,space,,t,,1,5.6749999999999545,images/zombie53.png
﻿,,,100,,MZD,60.024009603724096,708716,,,2023.2.2,,,1129.8629999999998,,2023-11-03_11h23.26.994,1129.8629999999998,,,"Abszess, Gehirnhautentzündung, Hautausschlag, Juckreiz",41,30,,2023-11-03_11h12.14.517,,33,,,1126.0949999999998,1126.0949999999998,,001,,Win32,0,1117.1799999999998,,,001,,,,,,,1,,41,1142.3629999999998,,12.493000000000166,,,,m,708716,Zombie_new,Zombie,space,,m,,1,8.396999999999935,images/zombie10.png
﻿,,,66,,keine schwere Krankheit,60.024009603724096,708716,,,2023.2.2,,,1148.362,,2023-11-03_11h23.26.994,1148.362,,,"Juckreiz,Verstopfung",42,51,,2023-11-03_11h12.14.517,,54,,,1147.33,1147.33,,001,,Win32,0,1142.364,,,001,,,,,,,0,,42,1152.0300000000002,,3.658000000000129,,,,m,708716,Zombie_new,Zombie,space,,g,,1,4.446999999999889,images/zombie48.png
﻿,,,66,,keine schwere Krankheit,60.024009603724096,708716,,,2023.2.2,,,1156.446,,2023-11-03_11h23.26.994,1156.446,,,Tränende Augen,43,55,,2023-11-03_11h12.14.517,,58,,,1155.063,1155.063,,001,,Win32,0,1152.031,,,001,,,,,,,0,,43,1159.0949999999998,,2.6399999999998727,,,,t,708716,Zombie_new,Zombie,space,,g,,1,2.5170000000000528,images/zombie31.png
﻿,,,66,,keine schwere Krankheit,60.024009603724096,708716,,,2023.2.2,,,1164.279,,2023-11-03_11h23.26.994,1164.279,,,"Gehirnhautentzündung, Hautausschlag",44,47,,2023-11-03_11h12.14.517,,50,,,1162.8629999999998,1162.8629999999998,,001,,Win32,0,1159.096,,,001,,,,,,,0,,44,1168.1309999999999,,3.8409999999998945,,,,m,708716,Zombie_new,Zombie,space,,g,,1,3.258000000000038,images/zombie49.png
﻿,,,100,,MZD,60.024009603724096,708716,,,2023.2.2,,,1177.8629999999998,,2023-11-03_11h23.26.994,1177.8629999999998,,,"Abszess, Gehirnhautentzündung, Juckreiz, Tränende Augen",45,27,,2023-11-03_11h12.14.517,,30,,,1174.929,1174.929,,001,,Win32,0,1168.1329999999998,,,001,,,,,,,1,,45,1186.88,,9.00500000000011,,,,m,708716,Zombie_new,Zombie,space,,m,,1,6.279999999999973,images/zombie35.png
﻿,,,33,,keine schwere Krankheit,60.024009603724096,708716,,,2023.2.2,,,1192.429,,2023-11-03_11h23.26.994,1192.429,,,"Juckreiz,Verstopfung",46,52,,2023-11-03_11h12.14.517,,55,,,1190.3780000000002,1190.3780000000002,,001,,Win32,0,1186.88,,,001,,,,,,,0,,46,1196.1950000000002,,3.759999999999991,,,,m,708716,Zombie_new,Zombie,space,,g,,1,2.977999999999838,images/zombie8.png
﻿,,,33,,TS19,60.024009603724096,708716,,,2023.2.2,,,1211.496,,2023-11-03_11h23.26.994,1211.495,,,"Abszess, Juckreiz,Verstopfung,Tränende Augen",47,14,,2023-11-03_11h12.14.517,,17,,,1207.5300000000002,1207.5300000000002,,001,,Win32,0,1196.196,,,001,,,,,,,0,,47,1226.062,,14.55600000000004,,,,m,708716,Zombie_new,Zombie,space,,t,,1,10.829999999999927,images/zombie23.png
﻿,,,33,,keine schwere Krankheit,60.024009603724096,708716,,,2023.2.2,,,1232.362,,2023-11-03_11h23.26.994,1232.362,,,"Juckreiz,Verstopfung",48,50,,2023-11-03_11h12.14.517,,53,,,1229.696,1229.696,,001,,Win32,0,1226.062,,,001,,,,,,,1,,48,1236.2800000000002,,3.91599999999994,,,,g,708716,Zombie_new,Zombie,space,,g,,1,3.1240000000000236,images/zombie34.png
﻿,,,66,,MZD,60.024009603724096,708716,,,2023.2.2,,,1249.3449999999998,,2023-11-03_11h23.26.994,1249.3449999999998,,,"Abszess, Geschwollene Drüsen, Juckreiz",49,37,,2023-11-03_11h12.14.517,,40,,,1246.895,1246.895,,001,,Win32,0,1236.283,,,001,,,,,,,1,,49,1258.73,,9.375,,,,m,708716,Zombie_new,Zombie,space,,m,,1,10.091000000000122,images/zombie7.png
﻿,,,66,,TS19,60.024009603724096,708716,,,2023.2.2,,,1267.897,,2023-11-03_11h23.26.994,1267.897,,,"Fieber, Gehirnhautentzündung, Tränende Augen",50,5,,2023-11-03_11h12.14.517,,8,,,1266.5279999999998,1266.5279999999998,,001,,Win32,0,1258.7309999999998,,,001,,,,,,,1,,50,1276.879,,8.971000000000004,,,,t,708716,Zombie_new,Zombie,space,,t,,1,7.280999999999949,images/zombie26.png
﻿,,,33,,keine schwere Krankheit,60.024009603724096,708716,,,2023.2.2,,,1286.4630000000002,,2023-11-03_11h23.26.994,1286.4630000000002,,,"Fieber, Hautausschlag",51,42,,2023-11-03_11h12.14.517,,45,,,1284.1460000000002,1284.1460000000002,,001,,Win32,0,1276.8809999999999,,,001,,,,,,,0,,51,1291.362,,4.88799999999992,,,,t,708716,Zombie_new,Zombie,space,,g,,1,6.741999999999962,images/zombie12.png
﻿,,,33,,keine schwere Krankheit,60.024009603724096,708716,,,2023.2.2,,,1302.4630000000002,,2023-11-03_11h23.26.994,1302.4630000000002,,,"Abszess, Geschwollene Drüsen, Juckreiz",52,48,,2023-11-03_11h12.14.517,,51,,,1301.312,1301.312,,001,,Win32,0,1291.3629999999998,,,001,,,,,,,0,,52,1311.379,,8.906999999999925,,,,m,708716,Zombie_new,Zombie,space,,g,,1,9.42599999999993,images/zombie21.png
﻿,,,66,,MZD,60.024009603724096,708716,,,2023.2.2,,,1320.495,,2023-11-03_11h23.26.994,1320.495,,,"Gehirnhautentzündung, Geschwollene Drüsen, Juckreiz",53,32,,2023-11-03_11h12.14.517,,35,,,1318.446,1318.446,,001,,Win32,0,1311.38,,,001,,,,,,,1,,53,1329.346,,8.845000000000027,,,,m,708716,Zombie_new,Zombie,space,,m,,1,6.542999999999893,images/zombie57.png
﻿,,,33,,TS19,60.024009603724096,708716,,,2023.2.2,,,1345.362,,2023-11-03_11h23.26.994,1345.362,,,"Abszess, Fieber, Geschwollene Drüsen, Tränende Augen",54,6,,2023-11-03_11h12.14.517,,9,,,1342.7289999999998,1342.728,,001,,Win32,0,1329.346,,,001,,,,,,,1,,54,1355.5120000000002,,10.1400000000001,,,,t,708716,Zombie_new,Zombie,space,,t,,1,12.88000000000011,images/zombie44.png
﻿,,,66,,TS19,60.024009603724096,708716,,,2023.2.2,,,1365.562,,2023-11-03_11h23.26.994,1365.562,,,"Fieber, Hautausschlag, Tränende Augen",55,11,,2023-11-03_11h12.14.517,,14,,,1363.929,1363.929,,001,,Win32,0,1355.5120000000002,,,001,,,,,,,1,,55,1371.5970000000002,,6.02800000000002,,,,t,708716,Zombie_new,Zombie,space,,t,,1,7.913999999999987,images/zombie1.png
﻿,,,66,,keine schwere Krankheit,60.024009603724096,708716,,,2023.2.2,,,1376.879,,2023-11-03_11h23.26.994,1376.879,,,"Gehirnhautentzündung, Verstopfung",56,45,,2023-11-03_11h12.14.517,,48,,,1375.511,1375.511,,001,,Win32,0,1371.6,,,001,,,,,,,0,,56,1380.828,,3.9410000000002583,,,,m,708716,Zombie_new,Zombie,space,,g,,1,3.3919999999998254,images/zombie54.png
﻿,,,66,,TS19,60.024009603724096,708716,,,2023.2.2,,,1395.094,,2023-11-03_11h23.26.994,1395.094,,,"Abszess, Geschwollene Drüsen, Tränende Augen",57,15,,2023-11-03_11h12.14.517,,18,,,1393.911,1393.911,,001,,Win32,0,1380.83,,,001,,,,,,,1,,57,1402.1799999999998,,7.074000000000069,,,,t,708716,Zombie_new,Zombie,space,,t,,1,12.565000000000055,images/zombie3.png
﻿,,,,1412.179,,60.024009603724096,708716,,,2023.2.2,,,,,2023-11-03_11h23.26.994,,,,,,,,2023-11-03_11h12.14.517,,,,,,,,001,,Win32,,,,,001,,,,,,,,,,,,,,,1402.1799999999998,,708716,Zombie_new,Zombie,,,,,,,
﻿,6.654499999999999,,,,,59.98440405495126,736834,,,2023.2.2,,,,0.0005000000000006111,2023-11-03_11h25.07.552,,,6.630199999809266,,,,,2023-11-03_11h24.57.317,,,,,,,space,001,,Win32,,,,,001,,,,,,,,,,,,,,,,,736834,Zombie_new,Zombie,,,,,,,
﻿,,,,,,59.98440405495126,736834,,,2023.2.2,,,,,2023-11-03_11h25.07.552,,,,,,,,2023-11-03_11h24.57.317,,,7.653800000190735,,,,,001,,Win32,,,,6.65510000038147,001,,,,,,,,,,,,,,,,,736834,Zombie_new,Zombie,,,,,,,
﻿7.654,,,,,,59.98440405495126,736834,,,2023.2.2,,26.28230000019073,,,2023-11-03_11h25.07.552,,,,,,,,2023-11-03_11h24.57.317,,,,,,,,001,33.9699000005722,Win32,,,,,001,space,,,,,,,,,,,,,,,,736834,Zombie_new,Zombie,,,,,,,
﻿,,36.238700000762954,,,,59.98440405495126,736834,,,2023.2.2,,,,,2023-11-03_11h25.07.552,,,,,,,,2023-11-03_11h24.57.317,,,,,,,,001,,Win32,,,,,001,,,,,,,,,,,,,,space,,,736834,Zombie_new,Zombie,,33.970100000381464,,70.23819999980927,,,
﻿,,,,,,59.98440405495126,736834,,70.23850000000002,2023.2.2,,,,,2023-11-03_11h25.07.552,,76.1875,,,,,5.923300000190736,2023-11-03_11h24.57.317,,,,,,,,001,,Win32,,,,,001,,,,s,,,,,,,,,,,,,736834,Zombie_new,Zombie,,,,,,,
﻿,,,,,,59.98440405495126,736834,8.103499999999997,,2023.2.2,z,,,,2023-11-03_11h25.07.552,,,,,,,,2023-11-03_11h24.57.317,,,,76.18780000019075,,,,001,,Win32,,,84.32110000038148,,001,,,,,,,,,,,,,,,,,736834,Zombie_new,Zombie,,,,,,,
﻿,,,,,,59.98440405495126,736834,,,2023.2.2,,,,,2023-11-03_11h25.07.552,,,,,,,,2023-11-03_11h24.57.317,84.32150000000001,,,,,,,001,,Win32,,,,,001,,7.088999999999999,,,,,,d,,,,,91.43760000038148,,,,736834,Zombie_new,Zombie,,,,,,,
﻿,,,,,,59.98440405495126,736834,,,2023.2.2,,,,,2023-11-03_11h25.07.552,,,,,,,,2023-11-03_11h24.57.317,,,,,,,,001,,Win32,,,,,001,,,120.28799999999998,,28.81750000000001,91.43780000019075,,,,,space,,,,,,736834,Zombie_new,Zombie,,,,,,,
﻿,,,33,,TS19,59.98440405495126,736834,,,2023.2.2,,,164.85419999980925,,2023-11-03_11h25.07.552,164.85399999999998,,,"Verstopfung, Tränende Augen",0,17,,2023-11-03_11h24.57.317,,20,,,147.42130000019074,147.42119999980926,,001,,Win32,0,120.31260000038148,,,001,,,,,,,0,,0,184.1875,,19.327700000762917,,,,g,736834,Zombie_new,Zombie,space,,t,,1,26.59530000019072,images/zombie32.png
﻿,,,66,,keine schwere Krankheit,59.98440405495126,736834,,,2023.2.2,,,201.25310000038147,,2023-11-03_11h25.07.552,201.253,,,"Gehirnhautentzündung, Verstopfung",1,45,,2023-11-03_11h24.57.317,,48,,,196.82019999980926,196.82,,001,,Win32,0,184.19930000019073,,,001,,,,,,,0,,1,221.13660000038146,,19.870900000572192,,,,t,736834,Zombie_new,Zombie,space,,g,,1,12.106399999618532,images/zombie54.png
﻿,,,66,,MZD,59.98440405495126,736834,,,2023.2.2,,,240.02019999980925,,2023-11-03_11h25.07.552,240.02010000038146,,,"Abszess, Juckreiz, Verstopfung ",2,35,,2023-11-03_11h24.57.317,,38,,,236.57019999980926,236.57,,001,,Win32,0,221.14210000038148,,,001,,,,,,,0,,2,254.23660000038146,,14.20189999961849,,,,t,736834,Zombie_new,Zombie,space,,m,,1,14.914000000000016,images/zombie39.png
﻿,,,67,,MZD,59.98440405495126,736834,,,2023.2.2,,,263.86960000038147,,2023-11-03_11h25.07.552,263.86960000038147,,,"Abszess, Fieber, Juckreiz, Tränende Augen",3,34,,2023-11-03_11h24.57.317,,37,,,261.953,261.953,,001,,Win32,0,254.24910000038145,,,001,,,,,,,1,,3,276.9199000005722,,13.040599999427798,,,,m,736834,Zombie_new,Zombie,space,,m,,1,7.190799999237072,images/zombie43.png
﻿,,,100,,TS19,59.98440405495126,736834,,,2023.2.2,,,297.6699000005722,,2023-11-03_11h25.07.552,297.6699000005722,,,"Abszess, Fieber, Juckreiz, Tränende Augen",4,2,,2023-11-03_11h24.57.317,,5,,,294.33660000038145,294.33660000038145,,001,,Win32,0,276.9316000003815,,,001,,,,,,,0,,4,308.903,,11.22180000019074,,,,m,736834,Zombie_new,Zombie,space,,t,,1,16.89930000019075,images/zombie27.png
﻿,,,66,,TS19,59.98440405495126,736834,,,2023.2.2,,,333.76930000019075,,2023-11-03_11h25.07.552,333.76919999980925,,,"Abszess, Fieber, Geschwollene Drüsen, Tränende Augen",5,7,,2023-11-03_11h24.57.317,,10,,,330.38619999980926,330.3861000003815,,001,,Win32,0,308.91580000019076,,,001,,,,,,,0,,5,344.253,,10.470699999809312,,,,m,736834,Zombie_new,Zombie,space,,t,,1,20.95809999942776,images/zombie17.png
﻿,,,100,,TS19,59.98440405495126,736834,,,2023.2.2,,,358.7695,,2023-11-03_11h25.07.552,358.7695,,,"Abszess, Fieber, Tränende Augen",6,10,,2023-11-03_11h24.57.317,,13,,,356.036,356.036,,001,,Win32,0,344.26460000038145,,,001,,,,,,,1,,6,367.3863000001907,,8.605399999618498,,,,t,736834,Zombie_new,Zombie,space,,t,,1,11.261199999809264,images/zombie9.png
﻿,,,99,,keine schwere Krankheit,59.98440405495126,736834,,,2023.2.2,,,375.7196999998093,,2023-11-03_11h25.07.552,375.7195,,,"Juckreiz,Verstopfung",7,50,,2023-11-03_11h24.57.317,,53,,,373.3365,373.3365,,001,,Win32,0,367.39819999980926,,,001,,,,,,,1,,7,383.3529000005722,,7.622300000190762,,,,g,736834,Zombie_new,Zombie,space,,g,,1,5.432099999427805,images/zombie34.png
﻿,,,66,,TS19,59.98440405495126,736834,,,2023.2.2,,,411.7026000003815,,2023-11-03_11h25.07.552,411.7025,,,"Abszess, Juckreiz,Verstopfung,Tränende Augen",8,14,,2023-11-03_11h24.57.317,,17,,,409.03660000038144,409.0365,,001,,Win32,0,383.3643000001907,,,001,,,,,,,1,,8,419.6185,,7.910100000381476,,,,t,736834,Zombie_new,Zombie,space,,t,,1,25.15519999980927,images/zombie23.png
﻿,,,66,,MZD,59.98440405495126,736834,,,2023.2.2,,,428.90230000019073,,2023-11-03_11h25.07.552,428.90230000019073,,,"Abszess, Gehirnhautentzündung, Juckreiz",9,28,,2023-11-03_11h24.57.317,,31,,,426.2865,426.2864000005722,,001,,Win32,0,419.6243000001907,,,001,,,,,,,0,,9,439.3365,,10.42330000019075,,,,g,736834,Zombie_new,Zombie,space,,m,,1,6.138699999809262,images/zombie18.png
﻿,,,67,,keine schwere Krankheit,59.98440405495126,736834,,,2023.2.2,,,447.4525,,2023-11-03_11h25.07.552,447.4524000005722,,,"Abszess, Gehirnhautentzündung",10,43,,2023-11-03_11h24.57.317,,46,,,445.21930000019074,445.21919999980923,,001,,Win32,0,439.34769999980927,,,001,,,,,,,0,,10,454.3025,,6.841499999999996,,,,m,736834,Zombie_new,Zombie,space,,g,,1,5.355400000572217,images/zombie11.png
﻿,,,67,,MZD,59.98440405495126,736834,,,2023.2.2,,,477.4854000005722,,2023-11-03_11h25.07.552,477.4854000005722,,,"Abszess, Gehirnhautentzündung, Juckreiz, Tränende Augen",11,27,,2023-11-03_11h24.57.317,,30,,,474.48580000019075,474.48569999980924,,001,,Win32,0,454.3154000005722,,,001,,,,,,,0,,11,486.3358000001907,,8.837900000572176,,,,t,736834,Zombie_new,Zombie,space,,m,,1,19.660099999427757,images/zombie35.png
﻿,,,67,,keine schwere Krankheit,59.98440405495126,736834,,,2023.2.2,,,491.8025,,2023-11-03_11h25.07.552,491.8024000005722,,,"Juckreiz,Verstopfung",12,52,,2023-11-03_11h24.57.317,,55,,,489.8524000005722,489.8523000001907,,001,,Win32,0,486.3459000005722,,,001,,,,,,,1,,12,498.3193000001907,,6.507300000190696,,,,g,736834,Zombie_new,Zombie,space,,g,,1,2.9944000005721705,images/zombie8.png
﻿,,,100,,TS19,59.98440405495126,736834,,,2023.2.2,,,516.4854000005722,,2023-11-03_11h25.07.552,516.4853000001907,,,"Fieber, Juckreiz,Tränende Augen",13,3,,2023-11-03_11h24.57.317,,6,,,512.8015,512.8015,,001,,Win32,0,498.331,,,001,,,,,,,1,,13,522.8359000005722,,6.344300000190742,,,,t,736834,Zombie_new,Zombie,space,,t,,1,13.95420000076291,images/zombie16.png
﻿,,,33,,MZD,59.98440405495126,736834,,,2023.2.2,,,545.0689000005722,,2023-11-03_11h25.07.552,545.0689000005722,,,"Abszess, Geschwollene Drüsen, Juckreiz",14,37,,2023-11-03_11h24.57.317,,40,,,540.1691000003815,540.169,,001,,Win32,0,522.8476999998093,,,001,,,,,,,1,,14,556.5356000003815,,11.455100000381435,,,,m,736834,Zombie_new,Zombie,space,,m,,1,16.806600000381422,images/zombie7.png
﻿,,,33,,TS19,59.98440405495126,736834,,,2023.2.2,,,571.4018000001907,,2023-11-03_11h25.07.552,571.4016999998092,,,"Abszess, Fieber, Hautausschlag, Verstopfung",15,0,,2023-11-03_11h24.57.317,,3,,,568.3356999998092,568.3356000003814,,001,,Win32,0,556.5486000003815,,,001,,,,,,,0,,15,583.3356999998092,,11.922500000000014,,,,g,736834,Zombie_new,Zombie,space,,t,,1,11.273000000000025,images/zombie45.png
﻿,,,66,,TS19,59.98440405495126,736834,,,2023.2.2,,,596.6354000005722,,2023-11-03_11h25.07.552,596.6353000001907,,,"Fieber, Hautausschlag, Tränende Augen",16,11,,2023-11-03_11h24.57.317,,14,,,594.169,594.1689000005722,,001,,Win32,0,583.3481000003815,,,001,,,,,,,1,,16,603.3023000001907,,6.654199999809293,,,,t,736834,Zombie_new,Zombie,space,,t,,1,10.30600000000004,images/zombie1.png
﻿,,,66,,TS19,59.98440405495126,736834,,,2023.2.2,,,622.9356000003814,,2023-11-03_11h25.07.552,622.9355,,,"Abszess, Gehirnhautentzündung, Tränende Augen",17,16,,2023-11-03_11h24.57.317,,19,,,620.602,620.6019000005722,,001,,Win32,0,603.3149000005722,,,001,,,,,,,1,,17,629.2518000001908,,6.310399999618539,,,,t,736834,Zombie_new,Zombie,space,,t,,1,16.772800000190728,images/zombie53.png
﻿,,,99,,keine schwere Krankheit,59.98440405495126,736834,,,2023.2.2,,,637.6514999999999,,2023-11-03_11h25.07.552,637.6514999999999,,,"Fieber, Hautausschlag",18,41,,2023-11-03_11h24.57.317,,44,,,633.3855,633.3855,,001,,Win32,0,629.2586999998092,,,001,,,,,,,1,,18,641.9685,,4.314000000000078,,,,g,736834,Zombie_new,Zombie,space,,g,,1,3.61459999942781,images/zombie14.png
﻿,,,99,,keine schwere Krankheit,59.98440405495126,736834,,,2023.2.2,,,649.9016000003814,,2023-11-03_11h25.07.552,649.9016000003814,,,"Juckreiz,Verstopfung",19,49,,2023-11-03_11h24.57.317,,52,,,647.0016999998093,647.0016000003815,,001,,Win32,0,641.9809000005722,,,001,,,,,,,1,,19,656.1359000005722,,6.2319000005722955,,,,g,736834,Zombie_new,Zombie,space,,g,,1,4.506099999427761,images/zombie33.png
﻿,,,66,,MZD,59.98440405495126,736834,,,2023.2.2,,,671.3354000005722,,2023-11-03_11h25.07.552,671.3354000005722,,,"Abszess, Gehirnhautentzündung,Tränende Augen",20,19,,2023-11-03_11h24.57.317,,22,,,668.9519000005722,668.9518000001907,,001,,Win32,0,656.1484000005722,,,001,,,,,,,0,,20,676.8351999998092,,5.49389999961852,,,,t,736834,Zombie_new,Zombie,space,,m,,1,12.288299999236983,images/zombie36.png
﻿,,,100,,keine schwere Krankheit,59.98440405495126,736834,,,2023.2.2,,,684.9018000001907,,2023-11-03_11h25.07.552,684.9016999998092,,,"Gehirnhautentzündung, Hautausschlag",21,47,,2023-11-03_11h24.57.317,,50,,,682.2691000003815,682.2691000003815,,001,,Win32,0,676.8471999998093,,,001,,,,,,,1,,21,689.7184000005722,,4.804900000572161,,,,g,736834,Zombie_new,Zombie,space,,g,,1,4.9046999998092815,images/zombie49.png
﻿,,,100,,MZD,59.98440405495126,736834,,,2023.2.2,,,696.8184000005722,,2023-11-03_11h25.07.552,696.8184000005722,,,"Gehirnhautentzündung, Hautausschlag",22,21,,2023-11-03_11h24.57.317,,24,,,694.9188000001907,694.9186000003815,,001,,Win32,0,689.7306000003815,,,001,,,,,,,0,,22,706.3845,,9.556699999809211,,,,g,736834,Zombie_new,Zombie,space,,m,,1,4.672299999236998,images/zombie28.png
﻿,,,33,,keine schwere Krankheit,59.98440405495126,736834,,,2023.2.2,,,717.3516000003815,,2023-11-03_11h25.07.552,717.3515,,,"Gehirnhautentzündung, Hautausschlag",23,46,,2023-11-03_11h24.57.317,,49,,,712.9516999998093,712.9516999998093,,001,,Win32,0,706.3918000001908,,,001,,,,,,,1,,23,723.1521999998092,,5.798100000381396,,,,g,736834,Zombie_new,Zombie,space,,g,,1,6.041000000000054,images/zombie60.png
﻿,,,99,,keine schwere Krankheit,59.98440405495126,736834,,,2023.2.2,,,728.9514000005722,,2023-11-03_11h25.07.552,728.9514000005722,,,"Juckreiz,Verstopfung",24,51,,2023-11-03_11h24.57.317,,54,,,725.7509000005722,725.7509000005722,,001,,Win32,0,723.1646000003815,,,001,,,,,,,1,,24,733.7016999998093,,4.74249999999995,,,,g,736834,Zombie_new,Zombie,space,,g,,1,2.0811999998093142,images/zombie48.png
﻿,,,66,,keine schwere Krankheit,59.98440405495126,736834,,,2023.2.2,,,744.768,,2023-11-03_11h25.07.552,744.7679000005722,,,"Gehirnhautentzündung,Geschwollene Drüsen",25,44,,2023-11-03_11h24.57.317,,47,,,742.3513000001907,742.3511999998093,,001,,Win32,0,733.7115,,,001,,,,,,,0,,25,749.6016000003815,,4.829600000381447,,,,m,736834,Zombie_new,Zombie,space,,g,,1,8.123099999427836,images/zombie47.png
﻿,,,99,,TS19,59.98440405495126,736834,,,2023.2.2,,,762.0511999998092,,2023-11-03_11h25.07.552,762.0511999998092,,,"Abszess, Fieber, Hautausschlag, Tränende Augen",26,8,,2023-11-03_11h24.57.317,,11,,,758.8014000005722,758.8013000001907,,001,,Win32,0,749.6139000005722,,,001,,,,,,,1,,26,769.0851000003814,,7.021300000190763,,,,t,736834,Zombie_new,Zombie,space,,t,,1,8.67349999999999,images/zombie13.png
﻿,,,100,,MZD,59.98440405495126,736834,,,2023.2.2,,,775.2344000005722,,2023-11-03_11h25.07.552,775.2343000001907,,,"Abszess, Juckreiz",27,36,,2023-11-03_11h24.57.317,,39,,,773.135,773.1349000005722,,001,,Win32,0,769.0973000001908,,,001,,,,,,,0,,27,784.5855,,9.340199999809329,,,,g,736834,Zombie_new,Zombie,space,,m,,1,3.5226000003815443,images/zombie24.png
﻿,,,33,,keine schwere Krankheit,59.98440405495126,736834,,,2023.2.2,,,794.2676999998092,,2023-11-03_11h25.07.552,794.2676999998092,,,"Geschwollene Drüsen, Tränende Augen",28,56,,2023-11-03_11h24.57.317,,59,,,790.7346999998092,790.7346000003814,,001,,Win32,0,784.5966999998093,,,001,,,,,,,1,,28,800.868,,6.594700000762941,,,,g,736834,Zombie_new,Zombie,space,,g,,1,5.625200000762902,images/zombie38.png
﻿,,,66,,MZD,59.98440405495126,736834,,,2023.2.2,,,832.8681999998092,,2023-11-03_11h25.07.552,832.8681999998092,,,"Abszess, Fieber, Gehirnhautentzündung, Hautausschlag",29,18,,2023-11-03_11h24.57.317,,21,,,829.6846999998093,829.6846999998093,,001,,Win32,0,800.8764000005722,,,001,,,,,,,0,,29,839.9346999998093,,7.0576000003815125,,,,t,736834,Zombie_new,Zombie,space,,m,,1,28.294100000381377,images/zombie59.png
﻿,,,65,,MZD,59.98440405495126,736834,,,2023.2.2,,,875.4503000001907,,2023-11-03_11h25.07.552,875.4501999998092,,,"Abszess, Gehirnhautentzündung, Juckreiz, Tränende Augen",30,26,,2023-11-03_11h24.57.317,,29,,,873.3341999998092,873.3341999998092,,001,,Win32,0,839.9471999998093,,,001,,,,,,,1,,30,885.3335,,9.874700000763028,,,,m,736834,Zombie_new,Zombie,space,,m,,1,32.88269999980923,images/zombie50.png
﻿,,,34,,keine schwere Krankheit,59.98440405495126,736834,,,2023.2.2,,,894.1339000005722,,2023-11-03_11h25.07.552,894.1338000001907,,,Tränende Augen,31,57,,2023-11-03_11h24.57.317,,60,,,887.8669000005722,887.8669000005722,,001,,Win32,0,885.3401000003814,,,001,,,,,,,1,,31,899.9169000005722,,5.774900000572188,,,,g,736834,Zombie_new,Zombie,space,,g,,1,2.00290000057214,images/zombie15.png
﻿,,,66,,TS19,59.98440405495126,736834,,,2023.2.2,,,917.8844000005722,,2023-11-03_11h25.07.552,917.8844000005722,,,"Abszess, Geschwollene Drüsen, Tränende Augen",32,15,,2023-11-03_11h24.57.317,,18,,,915.3336999998093,915.3336999998093,,001,,Win32,0,899.923,,,001,,,,,,,1,,32,924.0844000005721,,6.187699999809297,,,,t,736834,Zombie_new,Zombie,space,,t,,1,14.889899999618592,images/zombie3.png
﻿,,,65,,keine schwere Krankheit,59.98440405495126,736834,,,2023.2.2,,,936.1339000005722,,2023-11-03_11h25.07.552,936.1338000001907,,,"Fieber, Hautausschlag",33,42,,2023-11-03_11h24.57.317,,45,,,933.2843000001907,933.2841999998093,,001,,Win32,0,924.097,,,001,,,,,,,1,,33,940.601,,4.463599999427743,,,,g,736834,Zombie_new,Zombie,space,,g,,1,8.672100000381533,images/zombie12.png
﻿,,,66,,MZD,59.98440405495126,736834,,,2023.2.2,,,962.1179000005721,,2023-11-03_11h25.07.552,962.1179000005721,,,"Fieber, Gehirnhautentzündung, Juckreiz, Verstopfung",34,23,,2023-11-03_11h24.57.317,,26,,,960.1839000005722,960.1839000005722,,001,,Win32,0,940.6131000003815,,,001,,,,,,,1,,34,974.4008000001908,,12.272599999427825,,,,m,736834,Zombie_new,Zombie,space,,m,,1,19.064500000000066,images/zombie51.png
﻿,,,66,,keine schwere Krankheit,59.98440405495126,736834,,,2023.2.2,,,982.4674000005722,,2023-11-03_11h25.07.552,982.4674000005722,,,"Fieber, Geschwollene Drüsen",35,40,,2023-11-03_11h24.57.317,,43,,,980.4173000001907,980.4173000001907,,001,,Win32,0,974.4129000005722,,,001,,,,,,,1,,35,986.9508000001907,,4.474399999618527,,,,g,736834,Zombie_new,Zombie,space,,g,,1,5.48919999980933,images/zombie52.png
﻿,,,99,,keine schwere Krankheit,59.98440405495126,736834,,,2023.2.2,,,996.4671999998093,,2023-11-03_11h25.07.552,996.4671000003815,,,"Geschwollene Drüsen, Tränende Augen",36,54,,2023-11-03_11h24.57.317,,57,,,993.9345,993.9344000005722,,001,,Win32,0,986.9631000003815,,,001,,,,,,,1,,36,1001.2673000001907,,4.787499999999909,,,,g,736834,Zombie_new,Zombie,space,,g,,1,6.4563000001907085,images/zombie25.png
﻿,,,100,,TS19,59.98440405495126,736834,,,2023.2.2,,,1022.1838000001909,,2023-11-03_11h25.07.552,1022.1838000001909,,,"Fieber, Tränende Augen",37,13,,2023-11-03_11h24.57.317,,16,,,1018.1506999998093,1018.1506000003816,,001,,Win32,0,1001.2796000003815,,,001,,,,,,,0,,37,1027.734,,5.538000000000011,,,,g,736834,Zombie_new,Zombie,space,,t,,1,16.356800000190788,images/zombie42.png
﻿,,,100,,keine schwere Krankheit,59.98440405495126,736834,,,2023.2.2,,,1034.3675,,2023-11-03_11h25.07.552,1034.3675,,,"Abszess, Fieber",38,39,,2023-11-03_11h24.57.317,,42,,,1032.4504000005722,1032.4504000005722,,001,,Win32,0,1027.744400000572,,,001,,,,,,,0,,38,1038.5841000003816,,4.205600000381537,,,,t,736834,Zombie_new,Zombie,space,,g,,1,4.196199999809323,images/zombie55.png
﻿,,,66,,MZD,59.98440405495126,736834,,,2023.2.2,,,1064.4666999998092,,2023-11-03_11h25.07.552,1064.4666999998092,,,"Abszess, Gehirnhautentzündung,Geschwollene Drüsen, Verstopfung",39,20,,2023-11-03_11h24.57.317,,23,,,1061.6839000005723,1061.6838000001908,,001,,Win32,0,1038.595,,,001,,,,,,,1,,39,1071.8843000001907,,7.40490000057207,,,,m,736834,Zombie_new,Zombie,space,,m,,1,22.578300000190666,images/zombie22.png
﻿,,,100,,TS19,59.98440405495126,736834,,,2023.2.2,,,1103.0333000001908,,2023-11-03_11h25.07.552,1103.0333000001908,,,"Fieber, Gehirnhautentzündung, Geschwollene Drüsen, Hautausschlag",40,1,,2023-11-03_11h24.57.317,,4,,,1100.75,1100.75,,001,,Win32,0,1071.8906000003815,,,001,,,,,,,0,,40,1112.4171999998093,,9.372799999237031,,,,m,736834,Zombie_new,Zombie,space,,t,,1,28.34030000019061,images/zombie19.png
﻿,,,98,,MZD,59.98440405495126,736834,,,2023.2.2,,,1137.9498000001906,,2023-11-03_11h25.07.552,1137.9496999998094,,,"Gehirnhautentzündung, Geschwollene Drüsen, Hautausschlag, Juckreiz",41,25,,2023-11-03_11h24.57.317,,28,,,1136.0504000005722,1136.0503000001906,,001,,Win32,0,1112.4266000003815,,,001,,,,,,,1,,41,1147.3001999998094,,9.33730000019068,,,,m,736834,Zombie_new,Zombie,space,,m,,1,23.105699999809303,images/zombie4.png
﻿,,,98,,TS19,59.98440405495126,736834,,,2023.2.2,,,1162.4331999998092,,2023-11-03_11h25.07.552,1162.4331000003815,,,"Abszess, Fieber, Geschwollene Drüsen, Tränende Augen",42,6,,2023-11-03_11h24.57.317,,9,,,1160.7,1160.6999000005721,,001,,Win32,0,1147.3126000003815,,,001,,,,,,,1,,42,1169.5835,,7.139899999618592,,,,t,736834,Zombie_new,Zombie,space,,t,,1,12.877800000190746,images/zombie44.png
﻿,,,98,,TS19,59.98440405495126,736834,,,2023.2.2,,,1197.9828000001908,,2023-11-03_11h25.07.552,1197.9828000001908,,,"Fieber, Gehirnhautentzündung, Tränende Augen",43,5,,2023-11-03_11h24.57.317,,8,,,1196.1331999998092,1196.1331000003815,,001,,Win32,0,1169.5961000003815,,,001,,,,,,,1,,43,1203.7671000003816,,5.772499999999809,,,,t,736834,Zombie_new,Zombie,space,,t,,1,26.027000000000044,images/zombie26.png
﻿,,,98,,MZD,59.98440405495126,736834,,,2023.2.2,,,1216.7165,,2023-11-03_11h25.07.552,1216.7165,,,"Abszess, Gehirnhautentzündung, Juckreiz",44,24,,2023-11-03_11h24.57.317,,27,,,1215.2496999998093,1215.2496000003814,,001,,Win32,0,1203.7798000001908,,,001,,,,,,,1,,44,1223.3999000005722,,6.680499999999938,,,,m,736834,Zombie_new,Zombie,space,,m,,1,10.96369999980925,images/zombie41.png
﻿,,,67,,keine schwere Krankheit,59.98440405495126,736834,,,2023.2.2,,,1234.8495,,2023-11-03_11h25.07.552,1234.8495,,,"Abszess, Geschwollene Drüsen, Juckreiz",45,48,,2023-11-03_11h24.57.317,,51,,,1232.5665,1232.5664000005722,,001,,Win32,0,1223.4121000003815,,,001,,,,,,,0,,45,1243.7,,8.843899999618543,,,,m,736834,Zombie_new,Zombie,space,,g,,1,8.639899999618592,images/zombie21.png
﻿,,,66,,keine schwere Krankheit,59.98440405495126,736834,,,2023.2.2,,,1253.2166000003815,,2023-11-03_11h25.07.552,1253.2166000003815,,,"Abszess, Tränende Augen",46,53,,2023-11-03_11h24.57.317,,56,,,1251.466400000572,1251.4663000001908,,001,,Win32,0,1243.7121999998092,,,001,,,,,,,0,,46,1258.4001000003814,,5.173399999618596,,,,t,736834,Zombie_new,Zombie,space,,g,,1,7.238899999618525,images/zombie30.png
﻿,,,100,,MZD,59.98440405495126,736834,,,2023.2.2,,,1285.2325,,2023-11-03_11h25.07.552,1285.2325,,,"Abszess, Gehirnhautentzündung, Hautausschlag, Juckreiz",47,30,,2023-11-03_11h24.57.317,,33,,,1282.1329000005721,1282.1329000005721,,001,,Win32,0,1258.412,,,001,,,,,,,1,,47,1293.5664000005722,,8.322599999427666,,,,m,736834,Zombie_new,Zombie,space,,m,,1,23.20859999942786,images/zombie10.png
﻿,,,99,,keine schwere Krankheit,59.98440405495126,736834,,,2023.2.2,,,1307.466,,2023-11-03_11h25.07.552,1307.466,,,"Abszess, Fieber, Hautausschlag",48,38,,2023-11-03_11h24.57.317,,41,,,1305.5829000005722,1305.5828000001907,,001,,Win32,0,1293.579,,,001,,,,,,,0,,48,1315.083,,7.604100000381322,,,,t,736834,Zombie_new,Zombie,space,,g,,1,11.499700000763141,images/zombie5.png
﻿,,,100,,MZD,59.98440405495126,736834,,,2023.2.2,,,1337.5993000001906,,2023-11-03_11h25.07.552,1337.5993000001906,,,"Abszess, Fieber, Gehirnhautentzündung, Juckreiz",49,22,,2023-11-03_11h24.57.317,,25,,,1335.8826999998093,1335.8826000003814,,001,,Win32,0,1315.095,,,001,,,,,,,1,,49,1347.1661000003814,,9.55460000038147,,,,m,736834,Zombie_new,Zombie,space,,m,,1,20.272100000381442,images/zombie58.png
﻿,,,100,,MZD,59.98440405495126,736834,,,2023.2.2,,,1362.4158000001908,,2023-11-03_11h25.07.552,1362.4156999998092,,,"Gehirnhautentzündung, Geschwollene Drüsen, Juckreiz",50,32,,2023-11-03_11h24.57.317,,35,,,1357.6494000005723,1357.6493000001908,,001,,Win32,0,1347.1734000005722,,,001,,,,,,,1,,50,1368.3829000005721,,5.955199999809338,,,,m,736834,Zombie_new,Zombie,space,,m,,1,9.958800000190877,images/zombie57.png
﻿,,,66,,MZD,59.98440405495126,736834,,,2023.2.2,,,1380.266,,2023-11-03_11h25.07.552,1380.2659000005722,,,"Gehirnhautentzündung, Juckreiz",51,31,,2023-11-03_11h24.57.317,,34,,,1377.5834000005723,1377.5833000001908,,001,,Win32,0,1368.3953000001907,,,001,,,,,,,0,,51,1385.8661000003815,,5.595400000571999,,,,g,736834,Zombie_new,Zombie,space,,m,,1,8.68280000019081,images/zombie2.png
﻿,,,66,,keine schwere Krankheit,59.98440405495126,736834,,,2023.2.2,,,1390.0488000001908,,2023-11-03_11h25.07.552,1390.0486999998093,,,Tränende Augen,52,55,,2023-11-03_11h24.57.317,,58,,,1388.1328000001906,1388.1328000001906,,001,,Win32,0,1385.8731999998092,,,001,,,,,,,1,,52,1393.1826999998093,,3.124600000381406,,,,g,736834,Zombie_new,Zombie,space,,g,,1,1.738399999618423,images/zombie31.png
﻿,,,99,,TS19,59.98440405495126,736834,,,2023.2.2,,,1404.7986999998093,,2023-11-03_11h25.07.552,1404.7986999998093,,,"Abszess, Fieber, Tränende Augen",53,9,,2023-11-03_11h24.57.317,,12,,,1401.8826000003814,1401.8825,,001,,Win32,0,1393.1833000001907,,,001,,,,,,,1,,53,1410.3656999998093,,5.554199999809271,,,,t,736834,Zombie_new,Zombie,space,,t,,1,8.171399999618416,images/zombie6.png
﻿,,,99,,TS19,59.98440405495126,736834,,,2023.2.2,,,1433.1823000001907,,2023-11-03_11h25.07.552,1433.1823000001907,,,"Abszess, Fieber, Gehirnhautentzündung, Tränende Augen",54,4,,2023-11-03_11h24.57.317,,7,,,1431.7496999998093,1431.7495,,001,,Win32,0,1410.3771000003815,,,001,,,,,,,1,,54,1440.5493000001907,,7.355600000381401,,,,t,736834,Zombie_new,Zombie,space,,t,,1,20.856100000381502,images/zombie20.png
﻿,,,99,,MZD,59.98440405495126,736834,,,2023.2.2,,,1458.2988000001908,,2023-11-03_11h25.07.552,1458.2988000001908,,,"Abszess, Gehirnhautentzündung, Juckreiz",55,29,,2023-11-03_11h24.57.317,,32,,,1456.3491999998093,1456.3491000003814,,001,,Win32,0,1440.558,,,001,,,,,,,1,,55,1466.5159000005722,,8.21080000019083,,,,m,736834,Zombie_new,Zombie,space,,m,,1,15.273399999618505,images/zombie56.png
﻿,,,100,,TS19,59.98440405495126,736834,,,2023.2.2,,,1480.4485,,2023-11-03_11h25.07.552,1480.4485,,,"Abszess, Fieber, Verstopfung,Tränende Augen",56,12,,2023-11-03_11h24.57.317,,15,,,1478.766,1478.766,,001,,Win32,0,1466.5284000005722,,,001,,,,,,,1,,56,1491.1321000003816,,10.67100000000005,,,,t,736834,Zombie_new,Zombie,space,,t,,1,11.726400000572312,images/zombie40.png
﻿,,,100,,MZD,59.98440405495126,736834,,,2023.2.2,,,1499.6653000001907,,2023-11-03_11h25.07.552,1499.6653000001907,,,"Gehirnhautentzündung, Juckreiz, Verstopfung",57,33,,2023-11-03_11h24.57.317,,36,,,1497.632,1497.6319000005722,,001,,Win32,0,1491.1445,,,001,,,,,,,1,,57,1508.3656999998093,,8.692100000381515,,,,m,736834,Zombie_new,Zombie,space,,m,,1,5.981300000190913,images/zombie37.png
﻿,,,,1518.383,,59.98440405495126,736834,,,2023.2.2,,,,,2023-11-03_11h25.07.552,,,,,,,,2023-11-03_11h24.57.317,,,,,,,,001,,Win32,,,,,001,,,,,,,,,,,,,,,1508.3791000003814,,736834,Zombie_new,Zombie,,,,,,,
﻿,49.269000000000005,,,,,60.024009603838785,975044,,,2023.2.2,,,,0,2023-11-03_11h33.41.561,,,49.241,,,,,2023-11-03_11h33.34.731,,,,,,,space,001,,Win32,,,,,001,,,,,,,,,,,,,,,,,975044,Zombie_new,Zombie,,,,,,,
﻿,,,,,,60.024009603838785,975044,,,2023.2.2,,,,,2023-11-03_11h33.41.561,,,,,,,,2023-11-03_11h33.34.731,,,50.262,,,,,001,,Win32,,,,49.269999999999996,001,,,,,,,,,,,,,,,,,975044,Zombie_new,Zombie,,,,,,,
﻿50.263000000000005,,,,,,60.024009603838785,975044,,,2023.2.2,,18.842000000000006,,,2023-11-03_11h33.41.561,,,,,,,,2023-11-03_11h33.34.731,,,,,,,,001,69.128,Win32,,,,,001,space,,,,,,,,,,,,,,,,975044,Zombie_new,Zombie,,,,,,,
﻿,,35.456,,,,60.024009603838785,975044,,,2023.2.2,,,,,2023-11-03_11h33.41.561,,,,,,,,2023-11-03_11h33.34.731,,,,,,,,001,,Win32,,,,,001,,,,,,,,,,,,,,space,,,975044,Zombie_new,Zombie,,69.129,,104.612,,,
﻿,,,,,,60.024009603838785,975044,,104.612,2023.2.2,,,,,2023-11-03_11h33.41.561,,110.182,,,,,5.545999999999992,2023-11-03_11h33.34.731,,,,,,,,001,,Win32,,,,,001,,,,s,,,,,,,,,,,,,975044,Zombie_new,Zombie,,,,,,,
﻿,,,,,,60.024009603838785,975044,5.405000000000001,,2023.2.2,z,,,,2023-11-03_11h33.41.561,,,,,,,,2023-11-03_11h33.34.731,,,,110.182,,,,001,,Win32,,,115.611,,001,,,,,,,,,,,,,,,,,975044,Zombie_new,Zombie,,,,,,,
﻿,,,,,,60.024009603838785,975044,,,2023.2.2,,,,,2023-11-03_11h33.41.561,,,,,,,,2023-11-03_11h33.34.731,115.611,,,,,,,001,,Win32,,,,,001,,7.907999999999987,,,,,,d,,,,,123.54599999999999,,,,975044,Zombie_new,Zombie,,,,,,,
﻿,,,,,,60.024009603838785,975044,,,2023.2.2,,,,,2023-11-03_11h33.41.561,,,,,,,,2023-11-03_11h33.34.731,,,,,,,,001,,Win32,,,,,001,,,153.84799999999998,,30.274999999999977,123.54599999999999,,,,,space,,,,,,975044,Zombie_new,Zombie,,,,,,,
﻿,,,33,,keine schwere Krankheit,60.024009603838785,975044,,,2023.2.2,,,210.795,,2023-11-03_11h33.41.561,210.795,,,"Fieber, Geschwollene Drüsen",0,40,,2023-11-03_11h33.34.731,,43,,,189.76399999999998,189.76299999999998,,001,,Win32,0,153.87599999999998,,,001,,,,,,,0,,0,216.94799999999998,,6.146999999999991,,,,m,975044,Zombie_new,Zombie,space,,g,,1,35.379999999999995,images/zombie52.png
﻿,,,33,,TS19,60.024009603838785,975044,,,2023.2.2,,,229.378,,2023-11-03_11h33.41.561,229.378,,,"Abszess, Fieber, Geschwollene Drüsen, Tränende Augen",1,7,,2023-11-03_11h33.34.731,,10,,,225.34599999999998,225.345,,001,,Win32,0,216.952,,,001,,,,,,,1,,1,236.21099999999998,,6.827000000000027,,,,t,975044,Zombie_new,Zombie,space,,t,,1,7.882000000000005,images/zombie17.png
