Target,trials.thisRepN,trials.thisTrialN,trials.thisN,trials.thisIndex,trials_2.thisRepN,trials_2.thisTrialN,trials_2.thisN,trials_2.thisIndex,thisRow.t,notes,Data_transparency.started,key_resp_data_transp.started,Data_transparency.stopped,key_resp_data_transp.keys,key_resp_data_transp.rt,key_resp_data_transp.duration,instructions.started,instructions.stopped,trial.started,target_show.started,target_show.stopped,target_find.started,mouse.started,trial.stopped,target_position_x_y,mouse.x,mouse.y,mouse.leftButton,mouse.midButton,mouse.rightButton,mouse.time,mouse.corr,mouse.clicked_name,feedback.started,feedback.stopped,target_find.stopped,instructions_survey.started,instructions_survey.stopped,instructions_ratings.started,instructions_ratings.stopped,survey_ratings.started,survey_ratings.stopped,furcht.response,liebenswert.response,rated_image,survey_gen.started,survey_gen.stopped,age.text,gender.response,survey_games.started,survey_games.stopped,pc_frequency.response,reaction_games_frequency.response,instructions_neuro.started,instructions_neuro.stopped,survey_neuro.started,survey_neuro.stopped,neuro_1_rev.response,neuro_2.response,neuro_3.response,neuro_4_rev.response,survey_fear.started,survey_fear.stopped,specific_fear_spider.response,specific_fear_snake.response,thanks.started,thanks.stopped,participant,session,date,expName,psychopyVersion,frameRate,expStart,
,,,,,,,,,,,0.0056170999887399375,0.026949799997964874,360.57235289999517,z,360.5318591000105,None,,,,,,,,,,,,,,,,,,,,,,,,,,,,,,,,,,,,,,,,,,,,,,,,,,,,001198,001,2023-11-13_12h57.23.972,Selektive Wahrnehmung,2023.2.2,59.768254575879325,2023-11-13 12h57.55.319201 +0100,
,,,,,,,,,,,,,,,,,360.57237549999263,360.57985419998295,,,,,,,,,,,,,,,,,,,,,,,,,,,,,,,,,,,,,,,,,,,,,,,,,,001198,001,2023-11-13_12h57.23.972,Selektive Wahrnehmung,2023.2.2,59.768254575879325,2023-11-13 12h57.55.319201 +0100,
schlange2,0,0,0,3,,,,,360.6859533999814,,,,,,,,,,360.5858134999871,360.6859533999814,362.68564559999504,363.58608559999266,3.0063017000211403,367.5826736000017,"[300, 0]",[],[],[],[],[],[],[],[],367.5835064999992,368.58385129997623,,,,,,,,,,,,,,,,,,,,,,,,,,,,,,,,,001198,001,2023-11-13_12h57.23.972,Selektive Wahrnehmung,2023.2.2,59.768254575879325,2023-11-13 12h57.55.319201 +0100,
auto1,0,1,1,12,,,,,368.6335363999824,,,,,,,,,,368.58406809999724,368.6335363999824,370.633557299996,371.5835905999993,2.999810899986187,375.592894899979,"[0, 300]",[],[],[],[],[],[],[],[],375.5933201999869,376.59302029997343,375.59276459997636,,,,,,,,,,,,,,,,,,,,,,,,,,,,,,,,001198,001,2023-11-13_12h57.23.972,Selektive Wahrnehmung,2023.2.2,59.768254575879325,2023-11-13 12h57.55.319201 +0100,
person2,0,2,2,5,,,,,376.66279669999494,,,,,,,,,,376.59323659999063,376.66279669999494,378.66085289997864,379.60808169998927,3.015132900007302,381.1408011999738,"[-300, -300]",[0.3472222222222222],[-0.08796296296296297],[1],[0],[0],[1.5322704999998678],[0],['dis4'],381.1412225999811,382.14195569997537,,,,,,,,,,,,,,,,,,,,,,,,,,,,,,,,,001198,001,2023-11-13_12h57.23.972,Selektive Wahrnehmung,2023.2.2,59.768254575879325,2023-11-13 12h57.55.319201 +0100,
gesicht3,0,3,3,10,,,,,382.1916869999841,,,,,,,,,,382.1421765999985,382.1916869999841,384.2036680999736,385.1527677999984,3.0108875000150874,387.10246329999063,"[0, -300]",[0.6166666666666667],[0.05462962962962963],[1],[0],[0],[1.9492704000149388],[],[],387.1028778999753,388.11706369998865,,,,,,,,,,,,,,,,,,,,,,,,,,,,,,,,,001198,001,2023-11-13_12h57.23.972,Selektive Wahrnehmung,2023.2.2,59.768254575879325,2023-11-13 12h57.55.319201 +0100,
schlange1,0,4,4,2,,,,,388.13577609998174,,,,,,,,,,388.1172748999961,388.13577609998174,390.1490998999798,391.11662849999266,2.9996366999985185,392.0013536999759,"[300, 300]",[0.6083333333333333],[0.05555555555555555],[1],[0],[0],[0.884289700014051],[],[],392.0017584999732,393.0172332999937,,,,,,,,,,,,,,,,,,,,,,,,,,,,,,,,,001198,001,2023-11-13_12h57.23.972,Selektive Wahrnehmung,2023.2.2,59.768254575879325,2023-11-13 12h57.55.319201 +0100,
spinne1,0,5,5,0,,,,,393.0853033000021,,,,,,,,,,393.0174464999873,393.0853033000021,395.09917969998787,396.0162624999939,2.99915780001902,398.09333379997406,"[-300, 0]",[0.3527777777777778],[-0.017592592592592594],[1],[0],[0],[2.076541200018255],[0],['dis1'],398.09374569999636,399.09813089997624,,,,,,,,,,,,,,,,,,,,,,,,,,,,,,,,,001198,001,2023-11-13_12h57.23.972,Selektive Wahrnehmung,2023.2.2,59.768254575879325,2023-11-13 12h57.55.319201 +0100,
flugzeug1,0,6,6,13,,,,,399.1546641999739,,,,,,,,,,399.0989309999859,399.1546641999739,401.15824029999203,402.1066976999864,3.008611400000518,403.59010489998036,"[0, 300]",[0.26944444444444443],[-0.014814814814814815],[1],[0],[0],[1.4829627000144683],[0],['dis5'],403.59051839998574,404.60572399999364,,,,,,,,,,,,,,,,,,,,,,,,,,,,,,,,,001198,001,2023-11-13_12h57.23.972,Selektive Wahrnehmung,2023.2.2,59.768254575879325,2023-11-13 12h57.55.319201 +0100,
gesicht4,0,7,7,11,,,,,404.62400869998964,,,,,,,,,,404.6059652999975,404.62400869998964,406.6419431999966,407.61980799998855,3.0141592000145465,408.8868527000013,"[300, 300]",[0.26944444444444443],[-0.014814814814814815],[1],[0],[0],[1.2665429999760818],[0],['dis4'],408.8873993999732,409.90114489998086,,,,,,,,,,,,,,,,,,,,,,,,,,,,,,,,,001198,001,2023-11-13_12h57.23.972,Selektive Wahrnehmung,2023.2.2,59.768254575879325,2023-11-13 12h57.55.319201 +0100,
gruppe2,0,8,8,7,,,,,409.9205062999972,,,,,,,,,,409.9013551999815,409.9205062999972,411.932261799986,412.9153325999796,3.0142663000151515,416.9158929999976,"[-300, 300]",[],[],[],[],[],[],[],[],416.9163860999979,417.9164797999838,416.9157716999762,,,,,,,,,,,,,,,,,,,,,,,,,,,,,,,,001198,001,2023-11-13_12h57.23.972,Selektive Wahrnehmung,2023.2.2,59.768254575879325,2023-11-13 12h57.55.319201 +0100,
zug1,0,9,9,15,,,,,417.93409659998724,,,,,,,,,,417.916728399985,417.93409659998724,419.94695240000146,420.91419349997886,3.0137771000154316,422.1095548000012,"[300, 300]",[0.3861111111111111],[-0.19166666666666668],[1],[0],[0],[1.1788714999856893],[0],['dis4'],422.1101115999918,423.11549379999633,,,,,,,,,,,,,,,,,,,,,,,,,,,,,,,,,001198,001,2023-11-13_12h57.23.972,Selektive Wahrnehmung,2023.2.2,59.768254575879325,2023-11-13 12h57.55.319201 +0100,
gesicht2,0,10,10,9,,,,,423.13932659997954,,,,,,,,,,423.11605099998997,423.13932659997954,425.1401794999838,426.12504099999205,3.0097882999980357,427.2550513999886,"[-300, 0]",[0.3888888888888889],[-0.17685185185185184],[1],[0],[0],[1.1293129999830853],[0],['dis3'],427.25546419998864,428.2711490999791,,,,,,,,,,,,,,,,,,,,,,,,,,,,,,,,,001198,001,2023-11-13_12h57.23.972,Selektive Wahrnehmung,2023.2.2,59.768254575879325,2023-11-13 12h57.55.319201 +0100,
person1,0,11,11,4,,,,,428.3448042999953,,,,,,,,,,428.2713710999815,428.3448042999953,430.35721989997546,431.28446169997915,3.0133988999878056,433.4513803999871,"[-300, 300]",[0.3888888888888889],[-0.17592592592592593],[1],[0],[0],[2.166447600000538],[0],['dis6'],433.4518222999759,434.46635169998626,,,,,,,,,,,,,,,,,,,,,,,,,,,,,,,,,001198,001,2023-11-13_12h57.23.972,Selektive Wahrnehmung,2023.2.2,59.768254575879325,2023-11-13 12h57.55.319201 +0100,
schiff1,0,12,12,14,,,,,434.4897450999997,,,,,,,,,,434.4665702999919,434.4897450999997,436.4998962999962,437.4807625999965,3.014491200010525,440.1886846999987,"[0, 300]",[0.4074074074074074],[-0.10277777777777777],[1],[0],[0],[2.7066631999914534],[0],['dis5'],440.19053029999486,441.1988502999884,,,,,,,,,,,,,,,,,,,,,,,,,,,,,,,,,001198,001,2023-11-13_12h57.23.972,Selektive Wahrnehmung,2023.2.2,59.768254575879325,2023-11-13 12h57.55.319201 +0100,
spinne2,0,13,13,1,,,,,441.3247237999749,,,,,,,,,,441.19908429999487,441.3247237999749,443.325469399977,444.2087279999978,3.0099483000230975,448.2056213999749,"[-300, 0]",[],[],[],[],[],[],[],[],448.20602599999984,449.20547570000053,,,,,,,,,,,,,,,,,,,,,,,,,,,,,,,,,001198,001,2023-11-13_12h57.23.972,Selektive Wahrnehmung,2023.2.2,59.768254575879325,2023-11-13 12h57.55.319201 +0100,
gruppe1,0,14,14,6,,,,,449.2880601999932,,,,,,,,,,449.2056977999746,449.2880601999932,451.2869721999741,452.2188840000017,3.013477700005751,453.0860072999785,"[-300, 0]",[0.19537037037037036],[-0.08518518518518518],[1],[0],[0],[0.8667116000142414],[0],['dis8'],453.08641629997874,454.08810860000085,,,,,,,,,,,,,,,,,,,,,,,,,,,,,,,,,001198,001,2023-11-13_12h57.23.972,Selektive Wahrnehmung,2023.2.2,59.768254575879325,2023-11-13 12h57.55.319201 +0100,
gesicht1,0,15,15,8,,,,,454.120872999978,,,,,,,,,,454.08890619999147,454.120872999978,456.13270419999026,457.098811999982,3.010756500007119,458.66769309999654,"[-300, 0]",[0.19074074074074074],[-0.09074074074074075],[1],[0],[0],[1.5683984000061173],[0],['dis8'],458.66815539999516,459.68322829998215,,,,,,,,,,,,,,,,,,,,,,,,,,,,,,,,,001198,001,2023-11-13_12h57.23.972,Selektive Wahrnehmung,2023.2.2,59.768254575879325,2023-11-13 12h57.55.319201 +0100,
gesicht4,1,0,16,11,,,,,459.70077799999854,,,,,,,,,,459.6834407999995,459.70077799999854,461.71606639999663,462.68248729998595,2.9993338999920525,465.5779911999998,"[0, -300]",[0.18796296296296297],[-0.09074074074074075],[1],[0],[0],[2.8950984999828506],[0],['dis4'],465.5784051999799,466.59138050000183,,,,,,,,,,,,,,,,,,,,,,,,,,,,,,,,,001198,001,2023-11-13_12h57.23.972,Selektive Wahrnehmung,2023.2.2,59.768254575879325,2023-11-13 12h57.55.319201 +0100,
schlange2,1,1,17,3,,,,,466.61054609998246,,,,,,,,,,466.59159029999864,466.61054609998246,468.63303849997465,469.60620239999844,3.014892000006512,473.60308599998825,"[300, -300]",[],[],[],[],[],[],[],[],473.6034912999894,474.6020051999949,,,,,,,,,,,,,,,,,,,,,,,,,,,,,,,,,001198,001,2023-11-13_12h57.23.972,Selektive Wahrnehmung,2023.2.2,59.768254575879325,2023-11-13 12h57.55.319201 +0100,
gesicht1,1,2,18,8,,,,,474.6209182999737,,,,,,,,,,474.60223639998003,474.6209182999737,476.62057410000125,477.6170485999901,3.0151789000083227,479.5205786000006,"[-300, -300]",[0.18703703703703703],[-0.09074074074074075],[1],[0],[0],[1.9030022000079043],[0],['dis1'],479.52100039998186,480.53325599999516,,,,,,,,,,,,,,,,,,,,,,,,,,,,,,,,,001198,001,2023-11-13_12h57.23.972,Selektive Wahrnehmung,2023.2.2,59.768254575879325,2023-11-13 12h57.55.319201 +0100,
schlange1,1,3,19,2,,,,,480.5534954999748,,,,,,,,,,480.5334799999837,480.5534954999748,482.56607679999433,483.53280839999206,2.9996203999908175,484.71658349997597,"[300, 0]",[0.2824074074074074],[-0.12777777777777777],[1],[0],[0],[1.1833427000092342],[1],['target_find'],484.71699929999886,485.7316705999838,,,,,,,,,,,,,,,,,,,,,,,,,,,,,,,,,001198,001,2023-11-13_12h57.23.972,Selektive Wahrnehmung,2023.2.2,59.768254575879325,2023-11-13 12h57.55.319201 +0100,
spinne1,1,4,20,0,,,,,485.74988969997503,,,,,,,,,,485.7318813999882,485.74988969997503,487.75073669999256,488.74919599998975,3.0176556000078563,490.4412921999756,"[-300, -300]",[-0.24814814814814815],[-0.2814814814814815],[1],[0],[0],[1.6915823000017554],[1],['target_find'],490.4417202999757,491.4574017999985,,,,,,,,,,,,,,,,,,,,,,,,,,,,,,,,,001198,001,2023-11-13_12h57.23.972,Selektive Wahrnehmung,2023.2.2,59.768254575879325,2023-11-13 12h57.55.319201 +0100,
auto1,1,5,21,12,,,,,491.47709819997544,,,,,,,,,,491.45762799997465,491.47709819997544,493.48838749999413,494.47362319999957,3.0164753000135534,498.4670403999917,"[-300, 300]",[],[],[],[],[],[],[],[],498.46744719997514,499.470951700001,,,,,,,,,,,,,,,,,,,,,,,,,,,,,,,,,001198,001,2023-11-13_12h57.23.972,Selektive Wahrnehmung,2023.2.2,59.768254575879325,2023-11-13 12h57.55.319201 +0100,
person1,1,6,22,4,,,,,499.48980399998254,,,,,,,,,,499.47116329998244,499.48980399998254,501.49872179998783,502.48649229999864,3.0157937000039965,504.0677031999803,"[-300, 300]",[-0.3101851851851852],[0.007407407407407408],[1],[0],[0],[1.5804290999949444],[0],['dis4'],504.0683006999898,505.0825551000016,,,,,,,,,,,,,,,,,,,,,,,,,,,,,,,,,001198,001,2023-11-13_12h57.23.972,Selektive Wahrnehmung,2023.2.2,59.768254575879325,2023-11-13 12h57.55.319201 +0100,
gesicht2,1,7,23,9,,,,,505.10083409998333,,,,,,,,,,505.0827675999899,505.10083409998333,507.1160048999882,508.0816456999746,2.999163200001931,509.89979339999263,"[-300, -300]",[-0.2962962962962963],[0.26851851851851855],[1],[0],[0],[1.8176881000108551],[0],['dis6'],509.9002032999997,510.9078392999945,,,,,,,,,,,,,,,,,,,,,,,,,,,,,,,,,001198,001,2023-11-13_12h57.23.972,Selektive Wahrnehmung,2023.2.2,59.768254575879325,2023-11-13 12h57.55.319201 +0100,
person2,1,8,24,5,,,,,510.92707729997346,,,,,,,,,,510.9081089999818,510.92707729997346,512.9396200999909,513.9228519999888,3.015099600015674,517.920192199992,"[0, -300]",[],[],[],[],[],[],[],[],517.9206416999805,518.9230608999787,,,,,,,,,,,,,,,,,,,,,,,,,,,,,,,,,001198,001,2023-11-13_12h57.23.972,Selektive Wahrnehmung,2023.2.2,59.768254575879325,2023-11-13 12h57.55.319201 +0100,
gesicht3,1,9,25,10,,,,,518.9452975999739,,,,,,,,,,518.923869899998,518.9452975999739,520.9508448999841,521.9336355999985,3.010619600012433,524.4836122999841,"[0, 300]",[0.3398148148148148],[0.3037037037037037],[1],[0],[0],[2.549573700001929],[0],['dis5'],524.4840333999891,525.4996199999878,,,,,,,,,,,,,,,,,,,,,,,,,,,,,,,,,001198,001,2023-11-13_12h57.23.972,Selektive Wahrnehmung,2023.2.2,59.768254575879325,2023-11-13 12h57.55.319201 +0100,
zug1,1,10,26,15,,,,,525.5180268999829,,,,,,,,,,525.4998463999946,525.5180268999829,527.5344264000014,528.4993242999772,2.999777599994559,530.7620969999989,"[-300, 0]",[0.3074074074074074],[0.25925925925925924],[1],[0],[0],[2.262366099981591],[0],['dis5'],530.7625139000011,531.7632167999982,,,,,,,,,,,,,,,,,,,,,,,,,,,,,,,,,001198,001,2023-11-13_12h57.23.972,Selektive Wahrnehmung,2023.2.2,59.768254575879325,2023-11-13 12h57.55.319201 +0100,
schiff1,1,11,27,14,,,,,531.7826025999966,,,,,,,,,,531.763424099976,531.7826025999966,533.7898125999782,534.7743417999882,3.011205999995582,537.6594931999862,"[300, -300]",[-0.017592592592592594],[0.31203703703703706],[1],[0],[0],[2.884703099989565],[0],['dis2'],537.6599049999786,538.6714789999824,,,,,,,,,,,,,,,,,,,,,,,,,,,,,,,,,001198,001,2023-11-13_12h57.23.972,Selektive Wahrnehmung,2023.2.2,59.768254575879325,2023-11-13 12h57.55.319201 +0100,
gruppe2,1,12,28,7,,,,,538.6894042999775,,,,,,,,,,538.6717191999778,538.6894042999775,540.7026229999901,541.6854517999745,3.002342099993257,544.3891723999986,"[-300, 0]",[0.32037037037037036],[-0.06944444444444445],[1],[0],[0],[2.714059799996903],[0],['dis1'],544.390536299994,545.3999134999758,,,,,,,,,,,,,,,,,,,,,,,,,,,,,,,,,001198,001,2023-11-13_12h57.23.972,Selektive Wahrnehmung,2023.2.2,59.768254575879325,2023-11-13 12h57.55.319201 +0100,
flugzeug1,1,13,29,13,,,,,545.4190894999774,,,,,,,,,,545.4001252999878,545.4190894999774,547.418972799991,548.3997388999851,2.9999137000122573,549.7833149999788,"[300, 0]",[-0.25092592592592594],[-0.011111111111111112],[1],[0],[0],[1.3831812999851536],[0],['dis3'],549.7837193000014,550.799549599993,,,,,,,,,,,,,,,,,,,,,,,,,,,,,,,,,001198,001,2023-11-13_12h57.23.972,Selektive Wahrnehmung,2023.2.2,59.768254575879325,2023-11-13 12h57.55.319201 +0100,
spinne2,1,14,30,1,,,,,550.9232192999916,,,,,,,,,,550.7997827999934,550.9232192999916,552.9313822999829,553.8129348999937,3.0134555000113323,554.9135105999885,"[300, 0]",[0.26296296296296295],[0.003703703703703704],[1],[0],[0],[1.1001677000022028],[1],['target_find'],554.9139263999823,555.9254201999865,,,,,,,,,,,,,,,,,,,,,,,,,,,,,,,,,001198,001,2023-11-13_12h57.23.972,Selektive Wahrnehmung,2023.2.2,59.768254575879325,2023-11-13 12h57.55.319201 +0100,
gruppe1,1,15,31,6,,,,,555.9573928999889,,,,,,,,,,555.9256480999757,555.9573928999889,557.9584864999924,558.9386698999733,3.0133282000024337,562.0217124999908,"[-300, 0]",[0.09074074074074075],[-0.31296296296296294],[1],[0],[0],[3.082634099991992],[0],['dis5'],562.0221198999789,563.0358277999912,,,,,,,,,,,,,,,,,,,,,,,,,,,,,,,,,001198,001,2023-11-13_12h57.23.972,Selektive Wahrnehmung,2023.2.2,59.768254575879325,2023-11-13 12h57.55.319201 +0100,
zug1,2,0,32,15,,,,,563.0542803999851,,,,,,,,,,563.0360379999911,563.0542803999851,565.0674771999766,566.0502253999875,3.014467299974058,570.0529217000003,"[0, -300]",[],[],[],[],[],[],[],[],570.0546871999977,571.0492308999819,570.0524680999806,,,,,,,,,,,,,,,,,,,,,,,,,,,,,,,,001198,001,2023-11-13_12h57.23.972,Selektive Wahrnehmung,2023.2.2,59.768254575879325,2023-11-13 12h57.55.319201 +0100,
spinne1,2,1,33,0,,,,,571.0675015999877,,,,,,,,,,571.0494505999959,571.0675015999877,573.0823279999895,574.0487074999837,2.999547599989455,576.5142154999776,"[300, 300]",[0.175],[0.26851851851851855],[1],[0],[0],[2.465060699993046],[1],['target_find'],576.5146262999915,577.5244412999891,,,,,,,,,,,,,,,,,,,,,,,,,,,,,,,,,001198,001,2023-11-13_12h57.23.972,Selektive Wahrnehmung,2023.2.2,59.768254575879325,2023-11-13 12h57.55.319201 +0100,
schlange2,2,2,34,3,,,,,577.5444214999734,,,,,,,,,,577.5246972999885,577.5444214999734,579.5656419000006,580.5405442999909,3.0161733999848366,581.3477631999995,"[-300, 0]",[-0.23425925925925925],[0.005555555555555556],[1],[0],[0],[0.8067887999932282],[1],['target_find'],581.3481788999925,582.3551623999956,,,,,,,,,,,,,,,,,,,,,,,,,,,,,,,,,001198,001,2023-11-13_12h57.23.972,Selektive Wahrnehmung,2023.2.2,59.768254575879325,2023-11-13 12h57.55.319201 +0100,
schlange1,2,3,35,2,,,,,582.3766647999873,,,,,,,,,,582.3554424999747,582.3766647999873,584.3872641999915,585.3691475999949,3.0140683999925386,586.2859887999948,"[300, -300]",[0.2851851851851852],[-0.29907407407407405],[1],[0],[0],[0.9163784999982454],[1],['target_find'],586.2864046999894,587.302174099983,,,,,,,,,,,,,,,,,,,,,,,,,,,,,,,,,001198,001,2023-11-13_12h57.23.972,Selektive Wahrnehmung,2023.2.2,59.768254575879325,2023-11-13 12h57.55.319201 +0100,
gesicht2,2,4,36,9,,,,,587.3225028000015,,,,,,,,,,587.3025666999747,587.3225028000015,589.3324966999935,590.3154582999996,3.0133602999849245,590.9905107999803,"[-300, 0]",[-0.30648148148148147],[0.08611111111111111],[1],[0],[0],[0.6739774000016041],[1],['target_find'],590.9923095999984,591.9983172999928,,,,,,,,,,,,,,,,,,,,,,,,,,,,,,,,,001198,001,2023-11-13_12h57.23.972,Selektive Wahrnehmung,2023.2.2,59.768254575879325,2023-11-13 12h57.55.319201 +0100,
flugzeug1,2,5,37,13,,,,,592.0174856999947,,,,,,,,,,591.9985309999902,592.0174856999947,594.0321181999752,595.0012242999801,3.0031473999843,596.0490919000003,"[0, 300]",[-0.03333333333333333],[0.29259259259259257],[1],[0],[0],[1.0472347000031732],[1],['target_find'],596.0495203999744,597.0665097999736,,,,,,,,,,,,,,,,,,,,,,,,,,,,,,,,,001198,001,2023-11-13_12h57.23.972,Selektive Wahrnehmung,2023.2.2,59.768254575879325,2023-11-13 12h57.55.319201 +0100,
gruppe2,2,6,38,7,,,,,597.0880438999739,,,,,,,,,,597.0670603999752,597.0880438999739,599.0983716999763,600.0739103999804,3.007472700002836,600.7915555999789,"[0, -300]",[0.08425925925925926],[-0.3824074074074074],[1],[0],[0],[0.7171824999968521],[1],['target_find'],600.7919756999763,601.8118001999974,,,,,,,,,,,,,,,,,,,,,,,,,,,,,,,,,001198,001,2023-11-13_12h57.23.972,Selektive Wahrnehmung,2023.2.2,59.768254575879325,2023-11-13 12h57.55.319201 +0100,
gesicht4,2,7,39,11,,,,,601.8562195999839,,,,,,,,,,601.8125542999769,601.8562195999839,603.8553804999974,604.8212158999813,3.0094613999826834,605.6720955999917,"[0, 300]",[0.000925925925925926],[0.23425925925925925],[1],[0],[0],[0.8504326000111178],[1],['target_find'],605.6725173000013,606.6866330999765,,,,,,,,,,,,,,,,,,,,,,,,,,,,,,,,,001198,001,2023-11-13_12h57.23.972,Selektive Wahrnehmung,2023.2.2,59.768254575879325,2023-11-13 12h57.55.319201 +0100,
gesicht1,2,8,40,8,,,,,606.7045003999956,,,,,,,,,,606.6868978999846,606.7045003999956,608.7185388999933,609.6849687999929,3.014072500023758,610.4707512999885,"[-300, 300]",[-0.16296296296296298],[0.22407407407407406],[1],[0],[0],[0.769708299980266],[1],['target_find'],610.4711600999872,611.4841201999807,,,,,,,,,,,,,,,,,,,,,,,,,,,,,,,,,001198,001,2023-11-13_12h57.23.972,Selektive Wahrnehmung,2023.2.2,59.768254575879325,2023-11-13 12h57.55.319201 +0100,
person2,2,9,41,5,,,,,611.5028783000016,,,,,,,,,,611.4843630999967,611.5028783000016,613.5195896999794,614.4975342999969,3.013485200004652,615.2666208999872,"[300, 300]",[0.35462962962962963],[0.19166666666666668],[1],[0],[0],[0.7686271000129636],[1],['target_find'],615.2670833999873,616.2848251999822,,,,,,,,,,,,,,,,,,,,,,,,,,,,,,,,,001198,001,2023-11-13_12h57.23.972,Selektive Wahrnehmung,2023.2.2,59.768254575879325,2023-11-13 12h57.55.319201 +0100,
gesicht3,2,10,42,10,,,,,616.3194133999932,,,,,,,,,,616.2856308999762,616.3194133999932,618.3318940999743,619.2976760999882,3.0128950999933295,620.4320784999873,"[-300, 300]",[-0.27314814814814814],[0.27037037037037037],[1],[0],[0],[1.1339604000095278],[1],['target_find'],620.432481099997,621.4343613999954,,,,,,,,,,,,,,,,,,,,,,,,,,,,,,,,,001198,001,2023-11-13_12h57.23.972,Selektive Wahrnehmung,2023.2.2,59.768254575879325,2023-11-13 12h57.55.319201 +0100,
gruppe1,2,11,43,6,,,,,621.4620433999808,,,,,,,,,,621.4351638999942,621.4620433999808,623.4580687999842,624.440400099993,3.006085000000894,625.5909613999829,"[0, 300]",[-0.05092592592592592],[0.337037037037037],[1],[0],[0],[1.1500860000087414],[1],['target_find'],625.591377099976,626.6069605999801,,,,,,,,,,,,,,,,,,,,,,,,,,,,,,,,,001198,001,2023-11-13_12h57.23.972,Selektive Wahrnehmung,2023.2.2,59.768254575879325,2023-11-13 12h57.55.319201 +0100,
schiff1,2,12,44,14,,,,,626.6293414999964,,,,,,,,,,626.6073478999897,626.6293414999964,628.6364949999843,629.6248248999764,3.0180430999898817,630.6366441999853,"[0, 300]",[-0.07407407407407407],[0.3490740740740741],[1],[0],[0],[1.011215100006666],[1],['target_find'],630.637055899977,631.652234499983,,,,,,,,,,,,,,,,,,,,,,,,,,,,,,,,,001198,001,2023-11-13_12h57.23.972,Selektive Wahrnehmung,2023.2.2,59.768254575879325,2023-11-13 12h57.55.319201 +0100,
auto1,2,13,45,12,,,,,631.6709762999963,,,,,,,,,,631.6524499999941,631.6709762999963,633.6824613999925,634.6659562999848,3.0138074999849778,635.732403699978,"[0, -300]",[-0.018518518518518517],[-0.2953703703703704],[1],[0],[0],[1.0659981000062544],[1],['target_find'],635.7328295999905,636.7484936999972,,,,,,,,,,,,,,,,,,,,,,,,,,,,,,,,,001198,001,2023-11-13_12h57.23.972,Selektive Wahrnehmung,2023.2.2,59.768254575879325,2023-11-13 12h57.55.319201 +0100,
person1,2,14,46,4,,,,,636.773531999992,,,,,,,,,,636.7489426999819,636.773531999992,638.7816694999929,639.7527274999884,3.0044110999733675,640.3820566999784,"[0, -300]",[0.03981481481481482],[-0.23148148148148148],[1],[0],[0],[0.6287341999995988],[1],['target_find'],640.3824678999954,641.399293800001,,,,,,,,,,,,,,,,,,,,,,,,,,,,,,,,,001198,001,2023-11-13_12h57.23.972,Selektive Wahrnehmung,2023.2.2,59.768254575879325,2023-11-13 12h57.55.319201 +0100,
spinne2,2,15,47,1,,,,,641.5230513999995,,,,,,,,,,641.3995032999956,641.5230513999995,643.532279099978,644.4124492999981,3.013228199997684,645.0529972999939,"[-300, 0]",[-0.2388888888888889],[0.012037037037037037],[1],[0],[0],[0.6393559999996796],[1],['target_find'],645.0551215999876,646.0584129999916,,,,,,,,,,,,,,,,,,,,,,,,,,,,,,,,,001198,001,2023-11-13_12h57.23.972,Selektive Wahrnehmung,2023.2.2,59.768254575879325,2023-11-13 12h57.55.319201 +0100,
gruppe2,3,0,48,7,,,,,646.0831892999995,,,,,,,,,,646.0586271999928,646.0831892999995,648.0901919999742,649.0714913999836,3.0131495999812614,649.7394298999861,"[300, 0]",[0.26666666666666666],[-0.08888888888888889],[1],[0],[0],[0.6674549999879673],[1],['target_find'],649.7398959999846,650.7540853999963,,,,,,,,,,,,,,,,,,,,,,,,,,,,,,,,,001198,001,2023-11-13_12h57.23.972,Selektive Wahrnehmung,2023.2.2,59.768254575879325,2023-11-13 12h57.55.319201 +0100,
spinne2,3,1,49,1,,,,,650.8875005999871,,,,,,,,,,650.7542957999976,650.8875005999871,652.9023424999905,653.7666421999747,3.0126294000074267,654.4188964999921,"[-300, 0]",[-0.38796296296296295],[0.07314814814814814],[1],[0],[0],[0.6518436000042129],[1],['target_find'],654.4193128999905,655.420575999975,,,,,,,,,,,,,,,,,,,,,,,,,,,,,,,,,001198,001,2023-11-13_12h57.23.972,Selektive Wahrnehmung,2023.2.2,59.768254575879325,2023-11-13 12h57.55.319201 +0100,
zug1,3,2,50,15,,,,,655.4543307999847,,,,,,,,,,655.4213779999991,655.4543307999847,657.4653135999979,658.4312181999849,3.010722100007115,659.0159497999994,"[0, -300]",[-0.005555555555555556],[-0.21296296296296297],[1],[0],[0],[0.5842905000026803],[1],['target_find'],659.0163582999958,660.0315520000004,,,,,,,,,,,,,,,,,,,,,,,,,,,,,,,,,001198,001,2023-11-13_12h57.23.972,Selektive Wahrnehmung,2023.2.2,59.768254575879325,2023-11-13 12h57.55.319201 +0100,
flugzeug1,3,3,51,13,,,,,660.0537613999913,,,,,,,,,,660.0318530999939,660.0537613999913,662.065136499994,663.0315372999758,3.000054000003729,664.6149584999948,"[-300, -300]",[-0.30092592592592593],[-0.25462962962962965],[1],[0],[0],[1.5829647999780718],[1],['target_find'],664.6154966999893,665.6166136999964,,,,,,,,,,,,,,,,,,,,,,,,,,,,,,,,,001198,001,2023-11-13_12h57.23.972,Selektive Wahrnehmung,2023.2.2,59.768254575879325,2023-11-13 12h57.55.319201 +0100,
gesicht3,3,4,52,10,,,,,665.641615999979,,,,,,,,,,665.6174074999872,665.641615999979,667.6414006999985,668.6234554999974,3.006896399980178,669.4799907999986,"[-300, 300]",[-0.28888888888888886],[0.3138888888888889],[1],[0],[0],[0.8554546000086702],[1],['target_find'],669.481769999984,670.4884983999946,,,,,,,,,,,,,,,,,,,,,,,,,,,,,,,,,001198,001,2023-11-13_12h57.23.972,Selektive Wahrnehmung,2023.2.2,59.768254575879325,2023-11-13 12h57.55.319201 +0100,
gruppe1,3,5,53,6,,,,,670.5086482999905,,,,,,,,,,670.4887088999967,670.5086482999905,672.5205789999745,673.5039048999897,3.0156574999855366,674.6697480999865,"[-300, 0]",[-0.3314814814814815],[0.11018518518518519],[1],[0],[0],[1.1651414000079967],[1],['target_find'],674.6701535999891,675.6889535999799,,,,,,,,,,,,,,,,,,,,,,,,,,,,,,,,,001198,001,2023-11-13_12h57.23.972,Selektive Wahrnehmung,2023.2.2,59.768254575879325,2023-11-13 12h57.55.319201 +0100,
schlange2,3,6,54,3,,,,,675.7082476999785,,,,,,,,,,675.6891683999856,675.7082476999785,677.717098699999,678.6981092999922,3.009227500006091,680.1838172999851,"[300, 300]",[0.23333333333333334],[0.2518518518518518],[1],[0],[0],[1.4852829999872483],[1],['target_find'],680.1842680999835,681.2030114999798,,,,,,,,,,,,,,,,,,,,,,,,,,,,,,,,,001198,001,2023-11-13_12h57.23.972,Selektive Wahrnehmung,2023.2.2,59.768254575879325,2023-11-13 12h57.55.319201 +0100,
schiff1,3,7,55,14,,,,,681.2347614999744,,,,,,,,,,681.2037927999918,681.2347614999744,683.2481388000015,684.214776799985,3.0118178999982774,685.3322807999793,"[-300, 300]",[-0.33611111111111114],[0.2796296296296296],[1],[0],[0],[1.117047800013097],[1],['target_find'],685.3327068999934,686.3480942999886,,,,,,,,,,,,,,,,,,,,,,,,,,,,,,,,,001198,001,2023-11-13_12h57.23.972,Selektive Wahrnehmung,2023.2.2,59.768254575879325,2023-11-13 12h57.55.319201 +0100,
person2,3,8,56,5,,,,,686.3683833999967,,,,,,,,,,686.3483676999749,686.3683833999967,688.3785488999856,689.3591986999963,3.0113508999929763,690.1920099999988,"[300, 300]",[0.19166666666666668],[0.2962962962962963],[1],[0],[0],[0.8320387999992818],[1],['target_find'],690.192511399975,691.2076723999926,,,,,,,,,,,,,,,,,,,,,,,,,,,,,,,,,001198,001,2023-11-13_12h57.23.972,Selektive Wahrnehmung,2023.2.2,59.768254575879325,2023-11-13 12h57.55.319201 +0100,
gesicht2,3,9,57,9,,,,,691.2266916999943,,,,,,,,,,691.2079160999856,691.2266916999943,693.2371329999878,694.229125599988,3.0016041999915615,695.14421269999,"[300, 0]",[0.2675925925925926],[0.016666666666666666],[1],[0],[0],[0.9334805000107735],[1],['target_find'],695.1460646999767,696.1550161999767,,,,,,,,,,,,,,,,,,,,,,,,,,,,,,,,,001198,001,2023-11-13_12h57.23.972,Selektive Wahrnehmung,2023.2.2,59.768254575879325,2023-11-13 12h57.55.319201 +0100,
gesicht4,3,10,58,11,,,,,696.1748652999813,,,,,,,,,,696.155236599996,696.1748652999813,698.1849220999866,699.1666546999768,3.0117079000046942,699.9359894999943,"[300, -300]",[0.24166666666666667],[-0.37222222222222223],[1],[0],[0],[0.7689109000202734],[1],['target_find'],699.936406599998,700.9492286999885,,,,,,,,,,,,,,,,,,,,,,,,,,,,,,,,,001198,001,2023-11-13_12h57.23.972,Selektive Wahrnehmung,2023.2.2,59.768254575879325,2023-11-13 12h57.55.319201 +0100,
person1,3,11,59,4,,,,,700.9671997999831,,,,,,,,,,700.9494384999853,700.9671997999831,702.9808555999771,703.9688818999857,3.0199115999857895,704.8660922999843,"[-300, 300]",[-0.1962962962962963],[0.17222222222222222],[1],[0],[0],[0.8964859999832697],[1],['target_find'],704.8665566999989,705.8816664999758,,,,,,,,,,,,,,,,,,,,,,,,,,,,,,,,,001198,001,2023-11-13_12h57.23.972,Selektive Wahrnehmung,2023.2.2,59.768254575879325,2023-11-13 12h57.55.319201 +0100,
spinne1,3,12,60,0,,,,,705.9004738999938,,,,,,,,,,705.8818820999877,705.9004738999938,707.9142404999875,708.8970960000006,2.9995193000067957,710.6637601999973,"[0, 300]",[0.05925925925925926],[0.25555555555555554],[1],[0],[0],[1.7819980999920517],[1],['target_find'],710.6641745999805,711.6822376999771,,,,,,,,,,,,,,,,,,,,,,,,,,,,,,,,,001198,001,2023-11-13_12h57.23.972,Selektive Wahrnehmung,2023.2.2,59.768254575879325,2023-11-13 12h57.55.319201 +0100,
schlange1,3,13,61,2,,,,,711.7036928999878,,,,,,,,,,711.6830835999863,711.7036928999878,713.7058036999952,714.6888834999991,3.0066918000229634,716.2564166999946,"[300, 300]",[0.33240740740740743],[0.2740740740740741],[1],[0],[0],[1.5671117000165395],[1],['target_find'],716.2569419999782,717.2760576999863,,,,,,,,,,,,,,,,,,,,,,,,,,,,,,,,,001198,001,2023-11-13_12h57.23.972,Selektive Wahrnehmung,2023.2.2,59.768254575879325,2023-11-13 12h57.55.319201 +0100,
auto1,3,14,62,12,,,,,717.299818200001,,,,,,,,,,717.2768357999739,717.299818200001,719.3025863999792,720.2850334999966,3.009026799991261,721.1020388999896,"[300, 300]",[0.33240740740740743],[0.2740740740740741],[1],[0],[0],[0.8165498999878764],[1],['target_find'],721.1024466999806,722.1044669999974,,,,,,,,,,,,,,,,,,,,,,,,,,,,,,,,,001198,001,2023-11-13_12h57.23.972,Selektive Wahrnehmung,2023.2.2,59.768254575879325,2023-11-13 12h57.55.319201 +0100,
gesicht1,3,15,63,8,,,,,722.137808599975,,,,,,,,,,722.1052440999774,722.137808599975,724.1483445999911,725.1154414999764,3.011050700006308,726.1328012000013,"[-300, -300]",[-0.19537037037037036],[-0.2037037037037037],[1],[0],[0],[1.016865500016138],[1],['target_find'],726.1332119999861,727.1496500999783,,,,,,,,,,,,,,,,,,,,,,,,,,,,,,,,,001198,001,2023-11-13_12h57.23.972,Selektive Wahrnehmung,2023.2.2,59.768254575879325,2023-11-13 12h57.55.319201 +0100,
gesicht4,4,0,64,11,,,,,727.1734935999848,,,,,,,,,,727.1502049999835,727.1734935999848,729.1817780999991,730.1681466999871,2.999440899991896,730.7980629999947,"[300, 0]",[0.25],[-0.07407407407407407],[1],[0],[0],[0.6480634000035934],[1],['target_find'],730.7985029999982,731.8146864000009,,,,,,,,,,,,,,,,,,,,,,,,,,,,,,,,,001198,001,2023-11-13_12h57.23.972,Selektive Wahrnehmung,2023.2.2,59.768254575879325,2023-11-13 12h57.55.319201 +0100,
flugzeug1,4,1,65,13,,,,,731.8360677999735,,,,,,,,,,731.8149695999746,731.8360677999735,733.8456347999745,734.8320966999745,3.0012669000134338,735.7081822999753,"[300, -300]",[0.29907407407407405],[-0.3212962962962963],[1],[0],[0],[0.8913490000122692],[1],['target_find'],735.708593599993,736.7220487000013,,,,,,,,,,,,,,,,,,,,,,,,,,,,,,,,,001198,001,2023-11-13_12h57.23.972,Selektive Wahrnehmung,2023.2.2,59.768254575879325,2023-11-13 12h57.55.319201 +0100,
schiff1,4,2,66,14,,,,,736.7412792999821,,,,,,,,,,736.7222612999904,736.7412792999821,738.7397391999839,739.7222678999824,3.0003228000132367,740.919541899988,"[-300, 0]",[-0.32222222222222224],[-0.006481481481481481],[1],[0],[0],[1.1967850000073668],[1],['target_find'],740.919965899986,741.9220951999887,,,,,,,,,,,,,,,,,,,,,,,,,,,,,,,,,001198,001,2023-11-13_12h57.23.972,Selektive Wahrnehmung,2023.2.2,59.768254575879325,2023-11-13 12h57.55.319201 +0100,
schlange2,4,3,67,3,,,,,741.9442955999984,,,,,,,,,,741.9225798999832,741.9442955999984,743.9502437999763,744.9330673999793,3.01103460000013,747.0663435999886,"[0, -300]",[0.07592592592592592],[-0.18703703703703703],[1],[0],[0],[2.1328364000073634],[1],['target_find'],747.0667543999734,748.0702017000003,,,,,,,,,,,,,,,,,,,,,,,,,,,,,,,,,001198,001,2023-11-13_12h57.23.972,Selektive Wahrnehmung,2023.2.2,59.768254575879325,2023-11-13 12h57.55.319201 +0100,
gruppe2,4,4,68,7,,,,,748.1073879999749,,,,,,,,,,748.0710012999771,748.1073879999749,750.1145224999927,751.0832331999845,3.0132829999784008,752.0485723999736,"[-300, 0]",[-0.2564814814814815],[-0.041666666666666664],[1],[0],[0],[0.9646313000121154],[1],['target_find'],752.0489843999967,753.0646321999957,,,,,,,,,,,,,,,,,,,,,,,,,,,,,,,,,001198,001,2023-11-13_12h57.23.972,Selektive Wahrnehmung,2023.2.2,59.768254575879325,2023-11-13 12h57.55.319201 +0100,
spinne1,4,5,69,0,,,,,753.0825755999831,,,,,,,,,,753.0648474999762,753.0825755999831,755.0968512999825,756.0796512999805,3.0152705000073183,756.9916566999746,"[0, 300]",[0.08055555555555556],[0.3111111111111111],[1],[0],[0],[0.9112700000114273],[1],['target_find'],756.9920721999952,757.9993725999957,,,,,,,,,,,,,,,,,,,,,,,,,,,,,,,,,001198,001,2023-11-13_12h57.23.972,Selektive Wahrnehmung,2023.2.2,59.768254575879325,2023-11-13 12h57.55.319201 +0100,
zug1,4,6,70,15,,,,,758.0362722999998,,,,,,,,,,758.0001399999892,758.0362722999998,760.0390430999978,761.0042685999942,3.0049452999955975,761.7045279000013,"[300, 0]",[0.29444444444444445],[-0.06574074074074074],[1],[0],[0],[0.6998210000165273],[1],['target_find'],761.7049383999838,762.7257836999779,,,,,,,,,,,,,,,,,,,,,,,,,,,,,,,,,001198,001,2023-11-13_12h57.23.972,Selektive Wahrnehmung,2023.2.2,59.768254575879325,2023-11-13 12h57.55.319201 +0100,
person1,4,7,71,4,,,,,762.7471348999825,,,,,,,,,,762.7265658999968,762.7471348999825,764.7519932999858,765.7334579999733,3.00773010001285,766.6169410999864,"[300, -300]",[0.2777777777777778],[-0.25277777777777777],[1],[0],[0],[0.8830703000130598],[1],['target_find'],766.6173535999842,767.6372513999813,,,,,,,,,,,,,,,,,,,,,,,,,,,,,,,,,001198,001,2023-11-13_12h57.23.972,Selektive Wahrnehmung,2023.2.2,59.768254575879325,2023-11-13 12h57.55.319201 +0100,
person2,4,8,72,5,,,,,767.6576136999938,,,,,,,,,,767.6374647999764,767.6576136999938,769.6646169000014,770.6472555999935,3.010075099999085,771.5154914000013,"[-300, 0]",[-0.4425925925925926],[-0.025],[1],[0],[0],[0.867791099997703],[],[],771.5159107999934,772.5317894999753,,,,,,,,,,,,,,,,,,,,,,,,,,,,,,,,,001198,001,2023-11-13_12h57.23.972,Selektive Wahrnehmung,2023.2.2,59.768254575879325,2023-11-13 12h57.55.319201 +0100,
gesicht3,4,9,73,10,,,,,772.5490913999965,,,,,,,,,,772.5319942999922,772.5490913999965,774.564507699979,775.531221799989,2.999532999994699,776.1473716999753,"[-300, 0]",[-0.2916666666666667],[0.0712962962962963],[1],[0],[0],[0.6157072999922093],[1],['target_find'],776.1477797999978,777.1636390999774,,,,,,,,,,,,,,,,,,,,,,,,,,,,,,,,,001198,001,2023-11-13_12h57.23.972,Selektive Wahrnehmung,2023.2.2,59.768254575879325,2023-11-13 12h57.55.319201 +0100,
gesicht1,4,10,74,8,,,,,777.181179999985,,,,,,,,,,777.1639446999761,777.181179999985,779.1910027999838,780.1748540999833,3.011484999995446,781.239708899986,"[300, 300]",[0.2824074074074074],[0.2490740740740741],[1],[0],[0],[1.0641445000073873],[1],['target_find'],781.2402020999871,782.255459499982,,,,,,,,,,,,,,,,,,,,,,,,,,,,,,,,,001198,001,2023-11-13_12h57.23.972,Selektive Wahrnehmung,2023.2.2,59.768254575879325,2023-11-13 12h57.55.319201 +0100,
gruppe1,4,11,75,6,,,,,782.2750288999814,,,,,,,,,,782.2557046999864,782.2750288999814,784.2875500999799,785.2687592000002,3.013367500010645,786.3697591999953,"[0, 300]",[-0.08981481481481482],[0.3037037037037037],[1],[0],[0],[1.10056110000005],[1],['target_find'],786.370167599991,787.3903685999976,,,,,,,,,,,,,,,,,,,,,,,,,,,,,,,,,001198,001,2023-11-13_12h57.23.972,Selektive Wahrnehmung,2023.2.2,59.768254575879325,2023-11-13 12h57.55.319201 +0100,
schlange1,4,12,76,2,,,,,787.4278920999786,,,,,,,,,,787.3911357999896,787.4278920999786,789.4330787999788,790.3990177999949,3.0086968000105117,791.7384985999961,"[0, -300]",[-0.12314814814814815],[-0.287962962962963],[1],[0],[0],[1.338386299990816],[1],['target_find'],791.7403607999731,792.7477821999928,,,,,,,,,,,,,,,,,,,,,,,,,,,,,,,,,001198,001,2023-11-13_12h57.23.972,Selektive Wahrnehmung,2023.2.2,59.768254575879325,2023-11-13 12h57.55.319201 +0100,
gesicht2,4,13,77,9,,,,,792.7653944999911,,,,,,,,,,792.7480270999949,792.7653944999911,794.7657514999737,795.7474609999917,2.999748300004285,796.3190013999993,"[0, -300]",[-0.041666666666666664],[-0.20185185185185187],[1],[0],[0],[0.5707380999810994],[1],['target_find'],796.3200332999986,797.3314500999986,,,,,,,,,,,,,,,,,,,,,,,,,,,,,,,,,001198,001,2023-11-13_12h57.23.972,Selektive Wahrnehmung,2023.2.2,59.768254575879325,2023-11-13 12h57.55.319201 +0100,
auto1,4,14,78,12,,,,,797.3537063999975,,,,,,,,,,797.3317647999793,797.3537063999975,799.3631540999922,800.3458265999798,3.014451299997745,801.6736347999831,"[-300, 300]",[-0.26481481481481484],[0.24537037037037038],[1],[0],[0],[1.3273498000053223],[1],['target_find'],801.6740500000014,802.6904063999827,,,,,,,,,,,,,,,,,,,,,,,,,,,,,,,,,001198,001,2023-11-13_12h57.23.972,Selektive Wahrnehmung,2023.2.2,59.768254575879325,2023-11-13 12h57.55.319201 +0100,
spinne2,4,15,79,1,,,,,802.8147997999913,,,,,,,,,,802.6906770999776,802.8147997999913,804.8210358999786,805.703526999976,3.0132088999962434,806.7705757999793,"[-300, -300]",[-0.30277777777777776],[-0.26296296296296295],[1],[0],[0],[1.0665686000138521],[1],['target_find'],806.770988299977,807.7720985999913,,,,,,,,,,,,,,,,,,,,,,,,,,,,,,,,,001198,001,2023-11-13_12h57.23.972,Selektive Wahrnehmung,2023.2.2,59.768254575879325,2023-11-13 12h57.55.319201 +0100,
,,,,,0,0,0,0,817.4688416999998,,,,,,,,,,,,,,,,,,,,,,,,,,,,807.7861015999806,814.0207663999754,814.0207959999971,817.4311188999854,817.4316042999853,827.4090620999923,5.0,1.0,schlange1,,,,,,,,,,,,,,,,,,,,,,,001198,001,2023-11-13_12h57.23.972,Selektive Wahrnehmung,2023.2.2,59.768254575879325,2023-11-13 12h57.55.319201 +0100,
,,,,,1,0,1,0,827.4409472999978,,,,,,,,,,,,,,,,,,,,,,,,,,,,,,,,827.4093912999961,837.7524180999899,3.0,3.0,schlange2,,,,,,,,,,,,,,,,,,,,,,,001198,001,2023-11-13_12h57.23.972,Selektive Wahrnehmung,2023.2.2,59.768254575879325,2023-11-13 12h57.55.319201 +0100,
,,,,,2,0,2,0,837.7833383999823,,,,,,,,,,,,,,,,,,,,,,,,,,,,,,,,837.7527037999826,846.2782219999935,4.0,2.0,gesicht4,,,,,,,,,,,,,,,,,,,,,,,001198,001,2023-11-13_12h57.23.972,Selektive Wahrnehmung,2023.2.2,59.768254575879325,2023-11-13 12h57.55.319201 +0100,
,,,,,3,0,3,0,846.3105122999987,,,,,,,,,,,,,,,,,,,,,,,,,,,,,,,,846.2784986999759,855.1869448999933,1.0,5.0,gesicht1,,,,,,,,,,,,,,,,,,,,,,,001198,001,2023-11-13_12h57.23.972,Selektive Wahrnehmung,2023.2.2,59.768254575879325,2023-11-13 12h57.55.319201 +0100,
,,,,,4,0,4,0,855.2183479999949,,,,,,,,,,,,,,,,,,,,,,,,,,,,,,,,855.187220199994,858.512078699976,1.0,5.0,person2,,,,,,,,,,,,,,,,,,,,,,,001198,001,2023-11-13_12h57.23.972,Selektive Wahrnehmung,2023.2.2,59.768254575879325,2023-11-13 12h57.55.319201 +0100,
,,,,,,,,,,,,,,,,,,,,,,,,,,,,,,,,,,,,,,,,,,,,,,858.515534599981,866.1989383999899,20,1.0,866.1989562999806,887.0468221999763,2.0,1.0,887.0468408000015,891.7066442999931,891.7066577999794,912.7922038999968,4.0,4.0,5.0,2.0,912.792235299974,920.4642176999769,5.0,4.0,920.464235099993,1151.3137955999991,,,,,,,,
