Target,trials.thisRepN,trials.thisTrialN,trials.thisN,trials.thisIndex,trials_2.thisRepN,trials_2.thisTrialN,trials_2.thisN,trials_2.thisIndex,thisRow.t,notes,Data_transparency.started,key_resp_data_transp.started,Data_transparency.stopped,key_resp_data_transp.keys,key_resp_data_transp.rt,key_resp_data_transp.duration,instructions.started,instructions.stopped,trial.started,target_show.started,target_show.stopped,target_find.started,mouse.started,trial.stopped,target_position_x_y,mouse.x,mouse.y,mouse.leftButton,mouse.midButton,mouse.rightButton,mouse.time,mouse.corr,mouse.clicked_name,feedback.started,feedback.stopped,instructions_survey.started,instructions_survey.stopped,instructions_ratings.started,instructions_ratings.stopped,survey_ratings.started,survey_ratings.stopped,furcht.response,liebenswert.response,rated_image,survey_gen.started,survey_gen.stopped,age.text,gender.response,survey_games.started,survey_games.stopped,pc_frequency.response,reaction_games_frequency.response,instructions_neuro.started,instructions_neuro.stopped,survey_neuro.started,survey_neuro.stopped,neuro_1_rev.response,neuro_2.response,neuro_3.response,neuro_4_rev.response,survey_fear.started,survey_fear.stopped,specific_fear_spider.response,specific_fear_snake.response,thanks.started,participant,session,date,expName,psychopyVersion,frameRate,expStart,
,,,,,,,,,,,0.024538999889045954,0.04107719985768199,39.388328900095075,z,39.332842600066215,None,,,,,,,,,,,,,,,,,,,,,,,,,,,,,,,,,,,,,,,,,,,,,,,,,,039042,001,2023-11-06_14h26.32.269,Selektive Wahrnehmung,2023.2.3,60.01179839543018,2023-11-06 14h27.00.981224 +0100,
,,,,,,,,,,,,,,,,,39.38838859973475,63.67307169968262,,,,,,,,,,,,,,,,,,,,,,,,,,,,,,,,,,,,,,,,,,,,,,,,039042,001,2023-11-06_14h26.32.269,Selektive Wahrnehmung,2023.2.3,60.01179839543018,2023-11-06 14h27.00.981224 +0100,
gesicht3,0,0,0,10,,,,,63.73826050013304,,,,,,,,,,63.68986519984901,63.73826050013304,65.7531518000178,66.70306550012901,3.030070999637246,67.8217806997709,"[-300, -300]",[-0.29074074074074074],[-0.3425925925925926],[1],[0],[0],[1.1179462000727654],[1],['target_find'],67.82378929993138,68.8362118001096,,,,,,,,,,,,,,,,,,,,,,,,,,,,,,,039042,001,2023-11-06_14h26.32.269,Selektive Wahrnehmung,2023.2.3,60.01179839543018,2023-11-06 14h27.00.981224 +0100,
gesicht1,0,1,1,8,,,,,68.96823270013556,,,,,,,,,,68.83699150010943,68.96823270013556,70.96813949989155,71.88455339986831,3.04839689983055,72.8543636999093,"[-300, 0]",[-0.24351851851851852],[0.006481481481481481],[1],[0],[0],[0.9690537001006305],[1],['target_find'],72.85542869986966,73.87021909980103,,,,,,,,,,,,,,,,,,,,,,,,,,,,,,,039042,001,2023-11-06_14h26.32.269,Selektive Wahrnehmung,2023.2.3,60.01179839543018,2023-11-06 14h27.00.981224 +0100,
schlange1,0,2,2,2,,,,,73.90452939970419,,,,,,,,,,73.8706967998296,73.90452939970419,75.919396399986,76.91801499994472,3.047873199917376,78.63835359970108,"[0, -300]",[0.06018518518518518],[-0.25277777777777777],[1],[0],[0],[1.7196191996335983],[1],['target_find'],78.63933529984206,79.65353389969096,,,,,,,,,,,,,,,,,,,,,,,,,,,,,,,039042,001,2023-11-06_14h26.32.269,Selektive Wahrnehmung,2023.2.3,60.01179839543018,2023-11-06 14h27.00.981224 +0100,
person1,0,3,3,4,,,,,79.7874306999147,,,,,,,,,,79.65414839982986,79.7874306999147,81.80245930003002,82.7010164000094,3.04766169982031,83.70407600002363,"[300, -300]",[0.24166666666666667],[-0.362962962962963],[1],[0],[0],[1.0019085998646915],[1],['target_find'],83.70547639997676,84.71863409969956,,,,,,,,,,,,,,,,,,,,,,,,,,,,,,,039042,001,2023-11-06_14h26.32.269,Selektive Wahrnehmung,2023.2.3,60.01179839543018,2023-11-06 14h27.00.981224 +0100,
spinne2,0,4,4,1,,,,,84.90060589974746,,,,,,,,,,84.719282399863,84.90060589974746,86.9004438999109,87.78404249995947,3.0654770000837743,89.06989669986069,"[300, 300]",[0.22037037037037038],[0.262037037037037],[1],[0],[0],[1.2851142999716103],[1],['target_find'],89.07086919993162,90.08652259968221,,,,,,,,,,,,,,,,,,,,,,,,,,,,,,,039042,001,2023-11-06_14h26.32.269,Selektive Wahrnehmung,2023.2.3,60.01179839543018,2023-11-06 14h27.00.981224 +0100,
schlange2,0,5,5,3,,,,,90.16866050008684,,,,,,,,,,90.08718389971182,90.16866050008684,92.1686527999118,93.18524429993704,3.098801600281149,94.65348559990525,"[300, -300]",[0.23055555555555557],[-0.35462962962962963],[1],[0],[0],[1.4674305999651551],[1],['target_find'],94.65463420003653,95.66838239971548,,,,,,,,,,,,,,,,,,,,,,,,,,,,,,,039042,001,2023-11-06_14h26.32.269,Selektive Wahrnehmung,2023.2.3,60.01179839543018,2023-11-06 14h27.00.981224 +0100,
spinne1,0,6,6,0,,,,,95.71702930005267,,,,,,,,,,95.6691458998248,95.71702930005267,97.7170603997074,98.71692689973861,3.0486281998455524,99.77169009996578,"[-300, -300]",[-0.34074074074074073],[-0.287962962962963],[1],[0],[0],[1.053953000344336],[1],['target_find'],99.7728532999754,100.78543369984254,,,,,,,,,,,,,,,,,,,,,,,,,,,,,,,039042,001,2023-11-06_14h26.32.269,Selektive Wahrnehmung,2023.2.3,60.01179839543018,2023-11-06 14h27.00.981224 +0100,
schiff1,0,7,7,14,,,,,100.83644809992984,,,,,,,,,,100.78617769991979,100.83644809992984,102.8514120997861,103.80034539988264,3.0151321003213525,104.48639780003577,"[-300, -300]",[-0.2324074074074074],[-0.19444444444444445],[1],[0],[0],[0.6849099998362362],[1],['target_find'],104.48769249999896,105.50078020012006,,,,,,,,,,,,,,,,,,,,,,,,,,,,,,,039042,001,2023-11-06_14h26.32.269,Selektive Wahrnehmung,2023.2.3,60.01179839543018,2023-11-06 14h27.00.981224 +0100,
auto1,0,8,8,12,,,,,105.53331620013341,,,,,,,,,,105.50128920003772,105.53331620013341,107.53331100009382,108.51650389982387,3.015798000153154,109.36856469977647,"[-300, -300]",[-0.3212962962962963],[-0.30092592592592593],[1],[0],[0],[0.8512368998490274],[1],['target_find'],109.36953849997371,110.38565990002826,,,,,,,,,,,,,,,,,,,,,,,,,,,,,,,039042,001,2023-11-06_14h26.32.269,Selektive Wahrnehmung,2023.2.3,60.01179839543018,2023-11-06 14h27.00.981224 +0100,
zug1,0,9,9,15,,,,,110.43600780004635,,,,,,,,,,110.38637459976599,110.43600780004635,112.4510764000006,113.43439179984853,3.0488041997887194,114.66859709983692,"[-300, 300]",[-0.3101851851851852],[0.23055555555555557],[1],[0],[0],[1.233709099702537],[1],['target_find'],114.66909520002082,115.68409929983318,,,,,,,,,,,,,,,,,,,,,,,,,,,,,,,039042,001,2023-11-06_14h26.32.269,Selektive Wahrnehmung,2023.2.3,60.01179839543018,2023-11-06 14h27.00.981224 +0100,
gesicht4,0,10,10,11,,,,,115.7328662998043,,,,,,,,,,115.68480159994215,115.7328662998043,117.73290510009974,118.71620499994606,3.0321778003126383,119.56831179978326,"[300, -300]",[0.21574074074074073],[-0.29074074074074074],[1],[0],[0],[0.8512983000837266],[1],['target_find'],119.56945580011234,120.58481299970299,,,,,,,,,,,,,,,,,,,,,,,,,,,,,,,039042,001,2023-11-06_14h26.32.269,Selektive Wahrnehmung,2023.2.3,60.01179839543018,2023-11-06 14h27.00.981224 +0100,
gruppe2,0,11,11,7,,,,,120.65248599974439,,,,,,,,,,120.58554459968582,120.65248599974439,122.66722820000723,123.61594490008429,3.031324699986726,124.46875240001827,"[300, 0]",[0.2712962962962963],[-0.08981481481481482],[1],[0],[0],[0.85181919997558],[1],['target_find'],124.46988900005817,125.48372379969805,,,,,,,,,,,,,,,,,,,,,,,,,,,,,,,039042,001,2023-11-06_14h26.32.269,Selektive Wahrnehmung,2023.2.3,60.01179839543018,2023-11-06 14h27.00.981224 +0100,
flugzeug1,0,12,12,13,,,,,125.53246109979227,,,,,,,,,,125.48446589987725,125.53246109979227,127.5324607999064,128.51578240003437,3.0321291000582278,129.83495760010555,"[300, 0]",[0.2962962962962963],[-0.028703703703703703],[1],[0],[0],[1.3184260996058583],[1],['target_find'],129.83609949983656,130.85069180000573,,,,,,,,,,,,,,,,,,,,,,,,,,,,,,,039042,001,2023-11-06_14h26.32.269,Selektive Wahrnehmung,2023.2.3,60.01179839543018,2023-11-06 14h27.00.981224 +0100,
gruppe1,0,13,13,6,,,,,130.90175969991833,,,,,,,,,,130.85143529996276,130.90175969991833,132.91659189993516,133.88206179998815,3.031448899768293,134.8827716000378,"[-300, -300]",[-0.26851851851851855],[-0.29074074074074074],[1],[0],[0],[1.0002315999008715],[1],['target_find'],134.883296799846,135.8998722997494,,,,,,,,,,,,,,,,,,,,,,,,,,,,,,,039042,001,2023-11-06_14h26.32.269,Selektive Wahrnehmung,2023.2.3,60.01179839543018,2023-11-06 14h27.00.981224 +0100,
person2,0,14,14,5,,,,,135.94874730007723,,,,,,,,,,135.90061850007623,135.94874730007723,137.94859169982374,138.91514179995283,3.015337999910116,139.76750469999388,"[-300, 300]",[-0.287962962962963],[0.2601851851851852],[1],[0],[0],[0.851581399794668],[1],['target_find'],139.76860509999096,140.78290629992262,,,,,,,,,,,,,,,,,,,,,,,,,,,,,,,039042,001,2023-11-06_14h26.32.269,Selektive Wahrnehmung,2023.2.3,60.01179839543018,2023-11-06 14h27.00.981224 +0100,
gesicht2,0,15,15,9,,,,,140.81820969982073,,,,,,,,,,140.78347479971126,140.81820969982073,142.8327248999849,143.81495469994843,3.0321253002621233,144.81864259997383,"[0, 300]",[-0.04259259259259259],[0.31574074074074077],[1],[0],[0],[1.0026895999908447],[1],['target_find'],144.81971359997988,145.83289489988238,,,,,,,,,,,,,,,,,,,,,,,,,,,,,,,039042,001,2023-11-06_14h26.32.269,Selektive Wahrnehmung,2023.2.3,60.01179839543018,2023-11-06 14h27.00.981224 +0100,
schlange1,1,0,16,2,,,,,145.8815365997143,,,,,,,,,,145.83371359994635,145.8815365997143,147.88124909996986,148.86474830005318,3.031918099615723,150.20104430010542,"[-300, 300]",[-0.18611111111111112],[0.2064814814814815],[1],[0],[0],[1.3354905000887811],[1],['target_find'],150.20218549994752,151.2159184999764,,,,,,,,,,,,,,,,,,,,,,,,,,,,,,,039042,001,2023-11-06_14h26.32.269,Selektive Wahrnehmung,2023.2.3,60.01179839543018,2023-11-06 14h27.00.981224 +0100,
spinne2,1,1,17,1,,,,,151.3979881000705,,,,,,,,,,151.21666810009629,151.3979881000705,153.39805929968134,154.24773970013484,3.031869400292635,155.66702109994367,"[300, -300]",[0.2898148148148148],[-0.3814814814814815],[1],[0],[0],[1.4185311999171972],[1],['target_find'],155.66799840005115,156.68319789972156,,,,,,,,,,,,,,,,,,,,,,,,,,,,,,,039042,001,2023-11-06_14h26.32.269,Selektive Wahrnehmung,2023.2.3,60.01179839543018,2023-11-06 14h27.00.981224 +0100,
schiff1,1,2,18,14,,,,,156.76584339980036,,,,,,,,,,156.68376269983128,156.76584339980036,158.76577880000696,159.74785290006548,3.0647358996793628,160.65048279985785,"[0, -300]",[-0.025925925925925925],[-0.3194444444444444],[1],[0],[0],[0.9018565001897514],[1],['target_find'],160.65156139992177,161.66650220006704,,,,,,,,,,,,,,,,,,,,,,,,,,,,,,,039042,001,2023-11-06_14h26.32.269,Selektive Wahrnehmung,2023.2.3,60.01179839543018,2023-11-06 14h27.00.981224 +0100,
gesicht2,1,3,19,9,,,,,161.69892850006,,,,,,,,,,161.66709489980713,161.69892850006,163.69882129970938,164.7142591997981,3.0479628001339734,165.5487271999009,"[-300, -300]",[-0.25],[-0.31851851851851853],[1],[0],[0],[0.8337459997273982],[1],['target_find'],165.5492520998232,166.5649417997338,,,,,,,,,,,,,,,,,,,,,,,,,,,,,,,039042,001,2023-11-06_14h26.32.269,Selektive Wahrnehmung,2023.2.3,60.01179839543018,2023-11-06 14h27.00.981224 +0100,
person2,1,4,20,5,,,,,166.59726399974898,,,,,,,,,,166.56551040010527,166.59726399974898,168.5972651997581,169.5971087999642,3.032376099843532,170.34966989979148,"[300, 0]",[0.29814814814814816],[-0.03796296296296296],[1],[0],[0],[0.7516542002558708],[1],['target_find'],170.35056619998068,171.36514050001279,,,,,,,,,,,,,,,,,,,,,,,,,,,,,,,039042,001,2023-11-06_14h26.32.269,Selektive Wahrnehmung,2023.2.3,60.01179839543018,2023-11-06 14h27.00.981224 +0100,
flugzeug1,1,5,21,13,,,,,171.43353659985587,,,,,,,,,,171.36592150013894,171.43353659985587,173.44838010007516,174.38038920005783,3.0153189999982715,175.31498269969597,"[300, -300]",[0.2657407407407407],[-0.26666666666666666],[1],[0],[0],[0.9340940997935832],[1],['target_find'],175.31550779985264,176.33123879972845,,,,,,,,,,,,,,,,,,,,,,,,,,,,,,,039042,001,2023-11-06_14h26.32.269,Selektive Wahrnehmung,2023.2.3,60.01179839543018,2023-11-06 14h27.00.981224 +0100,
spinne1,1,6,22,0,,,,,176.36367439990863,,,,,,,,,,176.33185039972886,176.36367439990863,178.36363739985973,179.3632881999947,3.0321300998330116,180.7992722997442,"[300, -300]",[0.19166666666666668],[-0.27037037037037037],[1],[0],[0],[1.4354546000249684],[1],['target_find'],180.7997881998308,181.81449869973585,,,,,,,,,,,,,,,,,,,,,,,,,,,,,,,039042,001,2023-11-06_14h26.32.269,Selektive Wahrnehmung,2023.2.3,60.01179839543018,2023-11-06 14h27.00.981224 +0100,
gruppe2,1,7,23,7,,,,,181.86327819991857,,,,,,,,,,181.81526720011607,181.86327819991857,183.8632172998041,184.84640399971977,3.032081900164485,186.31530359992757,"[0, 300]",[-0.03796296296296296],[0.3814814814814815],[1],[0],[0],[1.4682555999606848],[1],['target_find'],186.31582649983466,187.33156049996614,,,,,,,,,,,,,,,,,,,,,,,,,,,,,,,039042,001,2023-11-06_14h26.32.269,Selektive Wahrnehmung,2023.2.3,60.01179839543018,2023-11-06 14h27.00.981224 +0100,
gesicht1,1,8,24,8,,,,,187.39949799980968,,,,,,,,,,187.33231130009517,187.39949799980968,189.41340050008148,190.34636269975454,3.015027899760753,191.11554559972137,"[-300, 300]",[-0.25277777777777777],[0.21296296296296297],[1],[0],[0],[0.7681851997040212],[1],['target_find'],191.1166433999315,192.1305577000603,,,,,,,,,,,,,,,,,,,,,,,,,,,,,,,039042,001,2023-11-06_14h26.32.269,Selektive Wahrnehmung,2023.2.3,60.01179839543018,2023-11-06 14h27.00.981224 +0100,
zug1,1,9,25,15,,,,,192.16293809982017,,,,,,,,,,192.13113200012594,192.16293809982017,194.16276279976591,195.1627027001232,2.9991307999007404,195.81491119973361,"[300, 0]",[0.25833333333333336],[-0.006481481481481481],[1],[0],[0],[0.684043399989605],[1],['target_find'],195.81598789989948,196.83175029978156,,,,,,,,,,,,,,,,,,,,,,,,,,,,,,,039042,001,2023-11-06_14h26.32.269,Selektive Wahrnehmung,2023.2.3,60.01179839543018,2023-11-06 14h27.00.981224 +0100,
gesicht3,1,10,26,10,,,,,196.86378169991076,,,,,,,,,,196.83239320013672,196.86378169991076,198.86393549991772,199.87917169975117,3.0474944999441504,200.76594959991053,"[0, -300]",[0.05],[-0.2759259259259259],[1],[0],[0],[0.8856844999827445],[1],['target_find'],200.76757759973407,201.78040089970455,,,,,,,,,,,,,,,,,,,,,,,,,,,,,,,039042,001,2023-11-06_14h26.32.269,Selektive Wahrnehmung,2023.2.3,60.01179839543018,2023-11-06 14h27.00.981224 +0100,
schlange2,1,11,27,3,,,,,201.82914729975164,,,,,,,,,,201.7811404997483,201.82914729975164,203.82916310010478,204.81217580009252,3.031850299797952,206.58181389980018,"[300, -300]",[0.3074074074074074],[-0.34074074074074073],[1],[0],[0],[1.7687817001715302],[1],['target_find'],206.58296089991927,207.59735799999908,,,,,,,,,,,,,,,,,,,,,,,,,,,,,,,039042,001,2023-11-06_14h26.32.269,Selektive Wahrnehmung,2023.2.3,60.01179839543018,2023-11-06 14h27.00.981224 +0100,
auto1,1,12,28,12,,,,,207.63212569989264,,,,,,,,,,207.59797520004213,207.63212569989264,209.64689330011606,210.61193190002814,3.014757900033146,211.28199869999662,"[300, -300]",[0.3074074074074074],[-0.34074074074074073],[1],[0],[0],[0.6689787996001542],[1],['target_find'],211.2833972997032,212.29610490007326,,,,,,,,,,,,,,,,,,,,,,,,,,,,,,,039042,001,2023-11-06_14h26.32.269,Selektive Wahrnehmung,2023.2.3,60.01179839543018,2023-11-06 14h27.00.981224 +0100,
gesicht4,1,13,29,11,,,,,212.32866209978238,,,,,,,,,,212.29660109989345,212.32866209978238,214.32868049992248,215.31198279978707,3.0159570001997054,215.81438650004566,"[300, -300]",[0.3074074074074074],[-0.34074074074074073],[1],[0],[0],[0.5016288999468088],[1],['target_find'],215.81549829989672,216.82999440003186,,,,,,,,,,,,,,,,,,,,,,,,,,,,,,,039042,001,2023-11-06_14h26.32.269,Selektive Wahrnehmung,2023.2.3,60.01179839543018,2023-11-06 14h27.00.981224 +0100,
gruppe1,1,14,30,6,,,,,216.8650996000506,,,,,,,,,,216.8305970998481,216.8650996000506,218.8793381997384,219.8618165999651,3.0319384997710586,220.78089609974995,"[-300, 0]",[-0.2851851851851852],[-0.04259259259259259],[1],[0],[0],[0.9182974002324045],[1],['target_find'],220.78179759997874,221.7961424998939,,,,,,,,,,,,,,,,,,,,,,,,,,,,,,,039042,001,2023-11-06_14h26.32.269,Selektive Wahrnehmung,2023.2.3,60.01179839543018,2023-11-06 14h27.00.981224 +0100,
person1,1,15,31,4,,,,,221.8448401996866,,,,,,,,,,221.7969120000489,221.8448401996866,223.84492349997163,224.82809819979593,3.0320250997319818,225.8643573001027,"[-300, 300]",[-0.25462962962962965],[0.27037037037037037],[1],[0],[0],[1.0353367002680898],[1],['target_find'],225.86584419989958,226.87819929979742,,,,,,,,,,,,,,,,,,,,,,,,,,,,,,,039042,001,2023-11-06_14h26.32.269,Selektive Wahrnehmung,2023.2.3,60.01179839543018,2023-11-06 14h27.00.981224 +0100,
zug1,2,0,32,15,,,,,226.91256590001285,,,,,,,,,,226.87844510003924,226.91256590001285,228.929190099705,229.91137519991025,3.0333877000957727,231.24814409995452,"[-300, -300]",[-0.29074074074074074],[-0.2657407407407407],[1],[0],[0],[1.3355733999051154],[1],['target_find'],231.24955949978903,232.2618860998191,,,,,,,,,,,,,,,,,,,,,,,,,,,,,,,039042,001,2023-11-06_14h26.32.269,Selektive Wahrnehmung,2023.2.3,60.01179839543018,2023-11-06 14h27.00.981224 +0100,
gruppe1,2,1,33,6,,,,,232.2945559998043,,,,,,,,,,232.2623752998188,232.2945559998043,234.29452739981934,235.27731229970232,3.0154852997511625,236.13246889971197,"[300, 0]",[0.2777777777777778],[-0.05555555555555555],[1],[0],[0],[0.8541556997224689],[1],['target_find'],236.1338840997778,237.1450187000446,,,,,,,,,,,,,,,,,,,,,,,,,,,,,,,039042,001,2023-11-06_14h26.32.269,Selektive Wahrnehmung,2023.2.3,60.01179839543018,2023-11-06 14h27.00.981224 +0100,
flugzeug1,2,2,34,13,,,,,237.17899890011176,,,,,,,,,,237.1454933998175,237.17899890011176,239.19535179995,240.16051279986277,3.0155602996237576,241.613753200043,"[300, 300]",[0.19074074074074074],[0.27037037037037037],[1],[0],[0],[1.4524620999582112],[1],['target_find'],241.61483330000192,242.62820489984006,,,,,,,,,,,,,,,,,,,,,,,,,,,,,,,039042,001,2023-11-06_14h26.32.269,Selektive Wahrnehmung,2023.2.3,60.01179839543018,2023-11-06 14h27.00.981224 +0100,
gesicht3,2,3,35,10,,,,,242.67739519989118,,,,,,,,,,242.62876740004867,242.67739519989118,244.6773528996855,245.64361559972167,3.015467799734324,246.3631261996925,"[0, -300]",[-0.05185185185185185],[-0.26481481481481484],[1],[0],[0],[0.7188083999790251],[1],['target_find'],246.3641083999537,247.3794768997468,,,,,,,,,,,,,,,,,,,,,,,,,,,,,,,039042,001,2023-11-06_14h26.32.269,Selektive Wahrnehmung,2023.2.3,60.01179839543018,2023-11-06 14h27.00.981224 +0100,
gesicht1,2,4,36,8,,,,,247.4302249001339,,,,,,,,,,247.38005969999358,247.4302249001339,249.44497489975765,250.41050509968773,2.9990179003216326,251.2802936998196,"[-300, -300]",[-0.2851851851851852],[-0.2972222222222222],[1],[0],[0],[0.9005801002494991],[1],['target_find'],251.28148890007287,252.29482859978452,,,,,,,,,,,,,,,,,,,,,,,,,,,,,,,039042,001,2023-11-06_14h26.32.269,Selektive Wahrnehmung,2023.2.3,60.01179839543018,2023-11-06 14h27.00.981224 +0100,
schlange2,2,5,37,3,,,,,252.34371019992977,,,,,,,,,,252.29557659989223,252.34371019992977,254.34357680007815,255.32667639991269,3.0320207001641393,256.9803867000155,"[-300, 300]",[-0.22962962962962963],[0.28425925925925927],[1],[0],[0],[1.6528320997022092],[1],['target_find'],256.98129539983347,257.9951790999621,,,,,,,,,,,,,,,,,,,,,,,,,,,,,,,039042,001,2023-11-06_14h26.32.269,Selektive Wahrnehmung,2023.2.3,60.01179839543018,2023-11-06 14h27.00.981224 +0100,
gruppe2,2,6,38,7,,,,,258.0462166001089,,,,,,,,,,257.9957968997769,258.0462166001089,260.061273700092,261.01122209988534,3.0161331999115646,262.11213729996234,"[0, 300]",[-0.04537037037037037],[0.31666666666666665],[1],[0],[0],[1.1000990997999907],[1],['target_find'],262.1131850001402,263.1273177997209,,,,,,,,,,,,,,,,,,,,,,,,,,,,,,,039042,001,2023-11-06_14h26.32.269,Selektive Wahrnehmung,2023.2.3,60.01179839543018,2023-11-06 14h27.00.981224 +0100,
person2,2,7,39,5,,,,,263.1598104001023,,,,,,,,,,263.12793130008504,263.1598104001023,265.1597532997839,266.14271999988705,3.0154570997692645,266.7798019000329,"[300, 0]",[0.22777777777777777],[0.005555555555555556],[1],[0],[0],[0.6361362999305129],[1],['target_find'],266.7814889997244,267.79387179994956,,,,,,,,,,,,,,,,,,,,,,,,,,,,,,,039042,001,2023-11-06_14h26.32.269,Selektive Wahrnehmung,2023.2.3,60.01179839543018,2023-11-06 14h27.00.981224 +0100,
gesicht4,2,8,40,11,,,,,267.82634230004624,,,,,,,,,,267.7944467999041,267.82634230004624,269.8276283997111,270.8091087997891,3.015297199599445,271.61303679971024,"[0, 300]",[-0.010185185185185186],[0.27314814814814814],[1],[0],[0],[0.8030373998917639],[1],['target_find'],271.61444510007277,272.6271063000895,,,,,,,,,,,,,,,,,,,,,,,,,,,,,,,039042,001,2023-11-06_14h26.32.269,Selektive Wahrnehmung,2023.2.3,60.01179839543018,2023-11-06 14h27.00.981224 +0100,
gesicht2,2,9,41,9,,,,,272.6759862997569,,,,,,,,,,272.62784019997343,272.6759862997569,274.6758890999481,275.6760072000325,3.0489726001396775,276.37871069973335,"[-300, 0]",[-0.2175925925925926],[0.013888888888888888],[1],[0],[0],[0.7018714002333581],[1],['target_find'],276.379775499925,277.3946301001124,,,,,,,,,,,,,,,,,,,,,,,,,,,,,,,039042,001,2023-11-06_14h26.32.269,Selektive Wahrnehmung,2023.2.3,60.01179839543018,2023-11-06 14h27.00.981224 +0100,
schiff1,2,10,42,14,,,,,277.42715810006484,,,,,,,,,,277.3951650997624,277.42715810006484,279.4269479997456,280.44251680001616,2.999268400017172,281.0614458001219,"[-300, 0]",[-0.21666666666666667],[0.027777777777777776],[1],[0],[0],[0.6663305000402033],[1],['target_find'],281.0624353000894,282.0762263997458,,,,,,,,,,,,,,,,,,,,,,,,,,,,,,,039042,001,2023-11-06_14h26.32.269,Selektive Wahrnehmung,2023.2.3,60.01179839543018,2023-11-06 14h27.00.981224 +0100,
auto1,2,11,43,12,,,,,282.1089472998865,,,,,,,,,,282.0766215999611,282.1089472998865,284.10884450003505,285.1087790997699,3.032634499948472,286.164344499819,"[0, 300]",[0.012962962962962963],[0.225],[1],[0],[0],[1.0543788997456431],[1],['target_find'],286.16615229984745,287.1777738998644,,,,,,,,,,,,,,,,,,,,,,,,,,,,,,,039042,001,2023-11-06_14h26.32.269,Selektive Wahrnehmung,2023.2.3,60.01179839543018,2023-11-06 14h27.00.981224 +0100,
schlange1,2,12,44,2,,,,,287.22851149970666,,,,,,,,,,287.17858760012314,287.22851149970666,289.243387399707,290.22534859972075,3.0476616001687944,291.0613402999006,"[300, 0]",[0.24166666666666667],[-0.02962962962962963],[1],[0],[0],[0.8351611001417041],[1],['target_find'],291.0623933998868,292.0764456000179,,,,,,,,,,,,,,,,,,,,,,,,,,,,,,,039042,001,2023-11-06_14h26.32.269,Selektive Wahrnehmung,2023.2.3,60.01179839543018,2023-11-06 14h27.00.981224 +0100,
spinne1,2,13,45,0,,,,,292.1084238998592,,,,,,,,,,292.07719639968127,292.1084238998592,294.1085000997409,295.1084913997911,3.0321246995590627,296.9597728997469,"[300, -300]",[0.22962962962962963],[-0.28888888888888886],[1],[0],[0],[1.8506675004027784],[1],['target_find'],296.9603895000182,297.97616179985926,,,,,,,,,,,,,,,,,,,,,,,,,,,,,,,039042,001,2023-11-06_14h26.32.269,Selektive Wahrnehmung,2023.2.3,60.01179839543018,2023-11-06 14h27.00.981224 +0100,
spinne2,2,14,46,1,,,,,298.19149830006063,,,,,,,,,,297.9769295998849,298.19149830006063,300.19153389986604,301.0248773000203,3.0487875998951495,301.94484789995477,"[300, 0]",[0.2962962962962963],[0.001851851851851852],[1],[0],[0],[0.9190496997907758],[1],['target_find'],301.9462422998622,302.95935939997435,,,,,,,,,,,,,,,,,,,,,,,,,,,,,,,039042,001,2023-11-06_14h26.32.269,Selektive Wahrnehmung,2023.2.3,60.01179839543018,2023-11-06 14h27.00.981224 +0100,
person1,2,15,47,4,,,,,303.026012300048,,,,,,,,,,302.95965520013124,303.026012300048,305.0258879000321,306.0259229000658,3.066649700049311,307.11164569994435,"[0, -300]",[0.017592592592592594],[-0.3333333333333333],[1],[0],[0],[1.084841599687934],[1],['target_find'],307.1127209998667,308.1253431998193,,,,,,,,,,,,,,,,,,,,,,,,,,,,,,,039042,001,2023-11-06_14h26.32.269,Selektive Wahrnehmung,2023.2.3,60.01179839543018,2023-11-06 14h27.00.981224 +0100,
schiff1,3,0,48,14,,,,,308.16078789997846,,,,,,,,,,308.12584919994697,308.16078789997846,310.1749505000189,311.1409239997156,3.0156597001478076,312.14303869986907,"[-300, -300]",[-0.3712962962962963],[-0.2953703703703704],[1],[0],[0],[1.0013833004049957],[1],['target_find'],312.14396920008585,313.1589367999695,,,,,,,,,,,,,,,,,,,,,,,,,,,,,,,039042,001,2023-11-06_14h26.32.269,Selektive Wahrnehmung,2023.2.3,60.01179839543018,2023-11-06 14h27.00.981224 +0100,
gesicht3,3,1,49,10,,,,,313.20759249990806,,,,,,,,,,313.1597058000043,313.20759249990806,315.20755759999156,316.1909098001197,3.0320489001460373,317.1938275001012,"[0, -300]",[-0.06944444444444445],[-0.2962962962962963],[1],[0],[0],[1.0020492002367973],[1],['target_find'],317.19527899986133,318.209971500095,,,,,,,,,,,,,,,,,,,,,,,,,,,,,,,039042,001,2023-11-06_14h26.32.269,Selektive Wahrnehmung,2023.2.3,60.01179839543018,2023-11-06 14h27.00.981224 +0100,
person2,3,2,50,5,,,,,318.24167429981753,,,,,,,,,,318.2107122000307,318.24167429981753,320.24076949991286,321.2571550998837,3.047254200093448,321.99364779982716,"[300, 0]",[0.19074074074074074],[-0.10092592592592593],[1],[0],[0],[0.7357080997899175],[1],['target_find'],321.9946467000991,323.00853369990364,,,,,,,,,,,,,,,,,,,,,,,,,,,,,,,039042,001,2023-11-06_14h26.32.269,Selektive Wahrnehmung,2023.2.3,60.01179839543018,2023-11-06 14h27.00.981224 +0100,
person1,3,3,51,4,,,,,323.0404105000198,,,,,,,,,,323.0092723998241,323.0404105000198,325.04046260006726,326.04040509974584,3.032049700152129,326.8437824998982,"[0, 300]",[0.01574074074074074],[0.24351851851851852],[1],[0],[0],[0.8022602000273764],[1],['target_find'],326.84516120003536,327.8585084998049,,,,,,,,,,,,,,,,,,,,,,,,,,,,,,,039042,001,2023-11-06_14h26.32.269,Selektive Wahrnehmung,2023.2.3,60.01179839543018,2023-11-06 14h27.00.981224 +0100,
gesicht1,3,4,52,8,,,,,327.9249295000918,,,,,,,,,,327.85924499994144,327.9249295000918,329.9249057001434,330.88982759974897,3.03137020021677,331.84125619987026,"[-300, 300]",[-0.24074074074074073],[0.24722222222222223],[1],[0],[0],[0.9509025001898408],[1],['target_find'],331.8417957001366,332.85685229999945,,,,,,,,,,,,,,,,,,,,,,,,,,,,,,,039042,001,2023-11-06_14h26.32.269,Selektive Wahrnehmung,2023.2.3,60.01179839543018,2023-11-06 14h27.00.981224 +0100,
flugzeug1,3,5,53,13,,,,,332.88971269968897,,,,,,,,,,332.85720669990405,332.88971269968897,334.88958489988,335.8731184997596,3.016350499819964,336.8261734000407,"[300, 0]",[0.3453703703703704],[-0.06388888888888888],[1],[0],[0],[0.9525882001034915],[1],['target_find'],336.8266897001304,337.8411199999973,,,,,,,,,,,,,,,,,,,,,,,,,,,,,,,039042,001,2023-11-06_14h26.32.269,Selektive Wahrnehmung,2023.2.3,60.01179839543018,2023-11-06 14h27.00.981224 +0100,
gruppe1,3,6,54,6,,,,,337.90974419983104,,,,,,,,,,337.8419181997888,337.90974419983104,339.9244670998305,340.8727543000132,3.0316898999735713,341.55877629993483,"[0, 300]",[0.05925925925925926],[0.24166666666666667],[1],[0],[0],[0.685332200024277],[1],['target_find'],341.559673700016,342.5737608000636,,,,,,,,,,,,,,,,,,,,,,,,,,,,,,,039042,001,2023-11-06_14h26.32.269,Selektive Wahrnehmung,2023.2.3,60.01179839543018,2023-11-06 14h27.00.981224 +0100,
zug1,3,7,55,15,,,,,342.6064447998069,,,,,,,,,,342.5742941997014,342.6064447998069,344.60635400004685,345.6062972997315,3.0327431997284293,347.09148389985785,"[0, -300]",[0.011111111111111112],[-0.2574074074074074],[1],[0],[0],[1.4843375999480486],[1],['target_find'],347.0923309000209,348.1078578000888,,,,,,,,,,,,,,,,,,,,,,,,,,,,,,,039042,001,2023-11-06_14h26.32.269,Selektive Wahrnehmung,2023.2.3,60.01179839543018,2023-11-06 14h27.00.981224 +0100,
spinne1,3,8,56,0,,,,,348.1426928997971,,,,,,,,,,348.1082190996967,348.1426928997971,350.1572444997728,351.13948519993573,3.031714600045234,352.57562759984285,"[0, -300]",[-0.04351851851851852],[-0.2833333333333333],[1],[0],[0],[1.4352225000038743],[1],['target_find'],352.57701240014285,353.59166989987716,,,,,,,,,,,,,,,,,,,,,,,,,,,,,,,039042,001,2023-11-06_14h26.32.269,Selektive Wahrnehmung,2023.2.3,60.01179839543018,2023-11-06 14h27.00.981224 +0100,
auto1,3,9,57,12,,,,,353.625727399718,,,,,,,,,,353.5924362000078,353.625727399718,355.6397107001394,356.62252169987187,3.030922499950975,357.3749652998522,"[300, 0]",[0.22777777777777777],[-0.06944444444444445],[1],[0],[0],[0.7516801999881864],[1],['target_find'],357.37593750003725,358.39011749997735,,,,,,,,,,,,,,,,,,,,,,,,,,,,,,,039042,001,2023-11-06_14h26.32.269,Selektive Wahrnehmung,2023.2.3,60.01179839543018,2023-11-06 14h27.00.981224 +0100,
spinne2,3,10,58,1,,,,,358.5888764997944,,,,,,,,,,358.39080860000104,358.5888764997944,360.58886169968173,361.43880009977147,3.048754299990833,361.87542730011046,"[300, 0]",[0.23055555555555557],[-0.06944444444444445],[1],[0],[0],[0.4357664999552071],[1],['target_find'],361.87658139970154,362.8887751000002,,,,,,,,,,,,,,,,,,,,,,,,,,,,,,,039042,001,2023-11-06_14h26.32.269,Selektive Wahrnehmung,2023.2.3,60.01179839543018,2023-11-06 14h27.00.981224 +0100,
schlange1,3,11,59,2,,,,,362.9567255997099,,,,,,,,,,362.8889982998371,362.9567255997099,364.95654699997976,365.95666859997436,3.0679927999153733,367.14138919999823,"[300, -300]",[0.26666666666666666],[-0.27314814814814814],[1],[0],[0],[1.1836455999873579],[1],['target_find'],367.14236399997026,368.1556198997423,,,,,,,,,,,,,,,,,,,,,,,,,,,,,,,039042,001,2023-11-06_14h26.32.269,Selektive Wahrnehmung,2023.2.3,60.01179839543018,2023-11-06 14h27.00.981224 +0100,
gesicht4,3,12,60,11,,,,,368.18862449983135,,,,,,,,,,368.15591019997373,368.18862449983135,370.18844049982727,371.18850430008024,3.0329738999716938,371.7578917997889,"[-300, 0]",[-0.3074074074074074],[-0.021296296296296296],[1],[0],[0],[0.5686089000664651],[1],['target_find'],371.75896519981325,372.7740382999182,,,,,,,,,,,,,,,,,,,,,,,,,,,,,,,039042,001,2023-11-06_14h26.32.269,Selektive Wahrnehmung,2023.2.3,60.01179839543018,2023-11-06 14h27.00.981224 +0100,
gruppe2,3,13,61,7,,,,,372.8249262999743,,,,,,,,,,372.77467329986393,372.8249262999743,374.839459199924,375.8050498999655,3.0310953999869525,377.27417320013046,"[-300, -300]",[-0.2712962962962963],[-0.35555555555555557],[1],[0],[0],[1.4683390003629029],[1],['target_find'],377.27531229984015,378.2889860998839,,,,,,,,,,,,,,,,,,,,,,,,,,,,,,,039042,001,2023-11-06_14h26.32.269,Selektive Wahrnehmung,2023.2.3,60.01179839543018,2023-11-06 14h27.00.981224 +0100,
gesicht2,3,14,62,9,,,,,378.3213833998889,,,,,,,,,,378.28958109999076,378.3213833998889,380.3214202998206,381.30439519975334,3.015594699885696,382.10736020002514,"[-300, 300]",[-0.3194444444444444],[0.3861111111111111],[1],[0],[0],[0.802348599769175],[1],['target_find'],382.1078381999396,383.12146009970456,,,,,,,,,,,,,,,,,,,,,,,,,,,,,,,039042,001,2023-11-06_14h26.32.269,Selektive Wahrnehmung,2023.2.3,60.01179839543018,2023-11-06 14h27.00.981224 +0100,
schlange2,3,15,63,3,,,,,383.1575528001413,,,,,,,,,,383.1217124001123,383.1575528001413,385.17231340007856,386.154546899721,3.033189299982041,387.5735184000805,"[-300, 300]",[-0.2916666666666667],[0.30925925925925923],[1],[0],[0],[1.4182053999975324],[1],['target_find'],387.5744346999563,388.588964600116,,,,,,,,,,,,,,,,,,,,,,,,,,,,,,,039042,001,2023-11-06_14h26.32.269,Selektive Wahrnehmung,2023.2.3,60.01179839543018,2023-11-06 14h27.00.981224 +0100,
gesicht4,4,0,64,11,,,,,388.63763239979744,,,,,,,,,,388.5896990997717,388.63763239979744,390.6376259000972,391.6376201999374,3.048738499637693,392.35713839996606,"[300, 0]",[0.2037037037037037],[0.05092592592592592],[1],[0],[0],[0.7187124998308718],[1],['target_find'],392.35819579986855,393.37173309968784,,,,,,,,,,,,,,,,,,,,,,,,,,,,,,,039042,001,2023-11-06_14h26.32.269,Selektive Wahrnehmung,2023.2.3,60.01179839543018,2023-11-06 14h27.00.981224 +0100,
gruppe2,4,1,65,7,,,,,393.40428839996457,,,,,,,,,,393.37227619998157,393.40428839996457,395.4040280999616,396.38699929974973,3.015320399776101,397.08971039997414,"[0, 300]",[0.023148148148148147],[0.24351851851851852],[1],[0],[0],[0.7019968996755779],[1],['target_find'],397.0906205000356,398.10494160000235,,,,,,,,,,,,,,,,,,,,,,,,,,,,,,,039042,001,2023-11-06_14h26.32.269,Selektive Wahrnehmung,2023.2.3,60.01179839543018,2023-11-06 14h27.00.981224 +0100,
spinne1,4,2,66,0,,,,,398.13712379988283,,,,,,,,,,398.1056936001405,398.13712379988283,400.1384326997213,401.13720079977065,3.032338600140065,403.83874009968713,"[0, -300]",[-0.006481481481481481],[-0.21296296296296297],[1],[0],[0],[2.7008512997999787],[1],['target_find'],403.83951820014045,404.8539195000194,,,,,,,,,,,,,,,,,,,,,,,,,,,,,,,039042,001,2023-11-06_14h26.32.269,Selektive Wahrnehmung,2023.2.3,60.01179839543018,2023-11-06 14h27.00.981224 +0100,
schiff1,4,3,67,14,,,,,404.8865189999342,,,,,,,,,,404.85438699973747,404.8865189999342,406.886447600089,407.87023449968547,3.0165510000661016,408.85624120011926,"[0, 300]",[-0.01574074074074074],[0.2611111111111111],[1],[0],[0],[0.9848885997198522],[1],['target_find'],408.85766799980775,409.8704119999893,,,,,,,,,,,,,,,,,,,,,,,,,,,,,,,039042,001,2023-11-06_14h26.32.269,Selektive Wahrnehmung,2023.2.3,60.01179839543018,2023-11-06 14h27.00.981224 +0100,
flugzeug1,4,4,68,13,,,,,409.9031523996964,,,,,,,,,,409.87089079990983,409.9031523996964,411.90332080004737,412.8862483999692,3.01589829986915,413.7399490997195,"[-300, -300]",[-0.29907407407407405],[-0.3685185185185185],[1],[0],[0],[0.8527935999445617],[1],['target_find'],413.74138200003654,414.7545843999833,,,,,,,,,,,,,,,,,,,,,,,,,,,,,,,039042,001,2023-11-06_14h26.32.269,Selektive Wahrnehmung,2023.2.3,60.01179839543018,2023-11-06 14h27.00.981224 +0100,
gesicht3,4,5,69,10,,,,,414.80623220000416,,,,,,,,,,414.75516870012507,414.80623220000416,416.82096230005845,417.76981239998713,3.015307000372559,418.32439399976283,"[0, -300]",[-0.09444444444444444],[-0.22314814814814815],[1],[0],[0],[0.5535841998644173],[1],['target_find'],418.3258131998591,419.3374884999357,,,,,,,,,,,,,,,,,,,,,,,,,,,,,,,039042,001,2023-11-06_14h26.32.269,Selektive Wahrnehmung,2023.2.3,60.01179839543018,2023-11-06 14h27.00.981224 +0100,
person2,4,6,70,5,,,,,419.3864092999138,,,,,,,,,,419.33822079980746,419.3864092999138,421.3861680999398,422.36944339983165,3.032021400053054,423.2220584996976,"[0, 300]",[-0.004629629629629629],[0.32685185185185184],[1],[0],[0],[0.8518523001112044],[1],['target_find'],423.2230453998782,424.2368795000948,,,,,,,,,,,,,,,,,,,,,,,,,,,,,,,039042,001,2023-11-06_14h26.32.269,Selektive Wahrnehmung,2023.2.3,60.01179839543018,2023-11-06 14h27.00.981224 +0100,
person1,4,7,71,4,,,,,424.26939699985087,,,,,,,,,,424.23730769986287,424.26939699985087,426.26935199974105,427.2693115998991,3.032677299808711,428.3722894997336,"[-300, -300]",[-0.337037037037037],[-0.2537037037037037],[1],[0],[0],[1.1019532000645995],[1],['target_find'],428.3733308999799,429.3871698998846,,,,,,,,,,,,,,,,,,,,,,,,,,,,,,,039042,001,2023-11-06_14h26.32.269,Selektive Wahrnehmung,2023.2.3,60.01179839543018,2023-11-06 14h27.00.981224 +0100,
gesicht2,4,8,72,9,,,,,429.4358413000591,,,,,,,,,,429.38791019981727,429.4358413000591,431.4368452001363,432.4191574999131,3.0320677999407053,432.9710015999153,"[-300, -300]",[-0.2953703703703704],[-0.23703703703703705],[1],[0],[0],[0.5511590000241995],[1],['target_find'],432.97170200012624,433.9864444998093,,,,,,,,,,,,,,,,,,,,,,,,,,,,,,,039042,001,2023-11-06_14h26.32.269,Selektive Wahrnehmung,2023.2.3,60.01179839543018,2023-11-06 14h27.00.981224 +0100,
spinne2,4,9,73,1,,,,,434.16909139975905,,,,,,,,,,433.98698769975454,434.16909139975905,436.16880819993094,437.0354562001303,2.9991019000299275,438.3227534000762,"[300, 300]",[0.1962962962962963],[0.24537037037037038],[1],[0],[0],[1.3360474999062717],[1],['target_find'],438.3240466997959,439.33620409993455,,,,,,,,,,,,,,,,,,,,,,,,,,,,,,,039042,001,2023-11-06_14h26.32.269,Selektive Wahrnehmung,2023.2.3,60.01179839543018,2023-11-06 14h27.00.981224 +0100,
schlange2,4,10,74,3,,,,,439.42024279991165,,,,,,,,,,439.3366864998825,439.42024279991165,441.42004489991814,442.40201890002936,3.0658950000070035,443.0881683998741,"[300, 0]",[0.2962962962962963],[-0.014814814814814815],[1],[0],[0],[0.685166799928993],[1],['target_find'],443.0895488001406,444.102637199685,,,,,,,,,,,,,,,,,,,,,,,,,,,,,,,039042,001,2023-11-06_14h26.32.269,Selektive Wahrnehmung,2023.2.3,60.01179839543018,2023-11-06 14h27.00.981224 +0100,
gesicht1,4,11,75,8,,,,,444.1353555000387,,,,,,,,,,444.1031129998155,444.1353555000387,446.13481550011784,447.1182730998844,3.015711300075054,447.73918560007587,"[300, 0]",[0.29907407407407405],[-0.021296296296296296],[1],[0],[0],[0.6204535998404026],[1],['target_find'],447.73971730004996,448.75278609991074,,,,,,,,,,,,,,,,,,,,,,,,,,,,,,,039042,001,2023-11-06_14h26.32.269,Selektive Wahrnehmung,2023.2.3,60.01179839543018,2023-11-06 14h27.00.981224 +0100,
auto1,4,12,76,12,,,,,448.8017063001171,,,,,,,,,,448.7534734001383,448.8017063001171,450.8023259998299,451.7862559999339,3.0335629996843636,452.6703773001209,"[-300, 300]",[-0.31851851851851853],[0.2574074074074074],[1],[0],[0],[0.8833976997993886],[1],['target_find'],452.6712195998989,453.6861128997989,,,,,,,,,,,,,,,,,,,,,,,,,,,,,,,039042,001,2023-11-06_14h26.32.269,Selektive Wahrnehmung,2023.2.3,60.01179839543018,2023-11-06 14h27.00.981224 +0100,
zug1,4,13,77,15,,,,,453.73779879976064,,,,,,,,,,453.68686669971794,453.73779879976064,455.7521079997532,456.7180884000845,3.0320452000014484,457.9375800001435,"[300, 300]",[0.22962962962962963],[0.25833333333333336],[1],[0],[0],[1.2190502001903951],[1],['target_find'],457.93811280000955,458.9516086000949,,,,,,,,,,,,,,,,,,,,,,,,,,,,,,,039042,001,2023-11-06_14h26.32.269,Selektive Wahrnehmung,2023.2.3,60.01179839543018,2023-11-06 14h27.00.981224 +0100,
gruppe1,4,14,78,6,,,,,458.98453349992633,,,,,,,,,,458.95188129972667,458.98453349992633,460.984403999988,461.98427829984576,3.0327441999688745,462.5374409998767,"[-300, 0]",[-0.2074074074074074],[-0.05185185185185185],[1],[0],[0],[0.5527082001790404],[1],['target_find'],462.53793379990384,463.55198769969866,,,,,,,,,,,,,,,,,,,,,,,,,,,,,,,039042,001,2023-11-06_14h26.32.269,Selektive Wahrnehmung,2023.2.3,60.01179839543018,2023-11-06 14h27.00.981224 +0100,
schlange1,4,15,79,2,,,,,463.5874196998775,,,,,,,,,,463.5525497999042,463.5874196998775,465.60222279978916,466.56742550013587,3.015493799932301,467.37194349989295,"[300, 0]",[0.19814814814814816],[-0.001851851851851852],[1],[0],[0],[0.8037538998760283],[1],['target_find'],467.3729750998318,468.38549689995125,,,,,,,,,,,,,,,,,,,,,,,,,,,,,,,039042,001,2023-11-06_14h26.32.269,Selektive Wahrnehmung,2023.2.3,60.01179839543018,2023-11-06 14h27.00.981224 +0100,
,,,,,0,0,0,0,473.45364949991927,,,,,,,,,,,,,,,,,,,,,,,,,,,468.4126768996939,471.5859078997746,471.5859479000792,473.3867370998487,473.38786569982767,485.6587263001129,4.0,1.0,gesicht3,,,,,,,,,,,,,,,,,,,,,,039042,001,2023-11-06_14h26.32.269,Selektive Wahrnehmung,2023.2.3,60.01179839543018,2023-11-06 14h27.00.981224 +0100,
,,,,,1,0,1,0,485.71945999981835,,,,,,,,,,,,,,,,,,,,,,,,,,,,,,,485.65906659979373,494.15858169971034,1.0,5.0,gruppe1,,,,,,,,,,,,,,,,,,,,,,039042,001,2023-11-06_14h26.32.269,Selektive Wahrnehmung,2023.2.3,60.01179839543018,2023-11-06 14h27.00.981224 +0100,
,,,,,2,0,2,0,494.21910269977525,,,,,,,,,,,,,,,,,,,,,,,,,,,,,,,494.1589020998217,501.6074243998155,1.0,4.0,flugzeug1,,,,,,,,,,,,,,,,,,,,,,039042,001,2023-11-06_14h26.32.269,Selektive Wahrnehmung,2023.2.3,60.01179839543018,2023-11-06 14h27.00.981224 +0100,
,,,,,3,0,3,0,501.66889719991013,,,,,,,,,,,,,,,,,,,,,,,,,,,,,,,501.60773609997705,511.2068396997638,1.0,3.0,schlange2,,,,,,,,,,,,,,,,,,,,,,039042,001,2023-11-06_14h26.32.269,Selektive Wahrnehmung,2023.2.3,60.01179839543018,2023-11-06 14h27.00.981224 +0100,
,,,,,4,0,4,0,511.2685501999222,,,,,,,,,,,,,,,,,,,,,,,,,,,,,,,511.2071308000013,518.5738246999681,4.0,1.0,gesicht2,,,,,,,,,,,,,,,,,,,,,,039042,001,2023-11-06_14h26.32.269,Selektive Wahrnehmung,2023.2.3,60.01179839543018,2023-11-06 14h27.00.981224 +0100,
,,,,,,,,,,,,,,,,,,,,,,,,,,,,,,,,,,,,,,,,,,,,,518.5778868999332,525.2350916001014, 19,1.0,525.2351139998063,536.3395400000736,2.0,1.0,536.3395600998774,542.1503268997185,542.1503641000018,562.9929499998689,2.0,4.0,4.0,2.0,562.9929745998234,571.571034300141,4.0,4.0,571.5710543999448,,,,,,,,
