Target,trials.thisRepN,trials.thisTrialN,trials.thisN,trials.thisIndex,trials_2.thisRepN,trials_2.thisTrialN,trials_2.thisN,trials_2.thisIndex,thisRow.t,notes,Data_transparency.started,key_resp_data_transp.started,Data_transparency.stopped,key_resp_data_transp.keys,key_resp_data_transp.rt,key_resp_data_transp.duration,instructions.started,instructions.stopped,trial.started,target_show.started,target_show.stopped,target_find.started,mouse.started,trial.stopped,target_position_x_y,mouse.x,mouse.y,mouse.leftButton,mouse.midButton,mouse.rightButton,mouse.time,mouse.corr,mouse.clicked_name,feedback.started,feedback.stopped,target_find.stopped,instructions_survey.started,instructions_survey.stopped,instructions_ratings.started,instructions_ratings.stopped,survey_ratings.started,survey_ratings.stopped,furcht.response,liebenswert.response,rated_image,survey_gen.started,survey_gen.stopped,age.text,gender.response,survey_games.started,survey_games.stopped,pc_frequency.response,reaction_games_frequency.response,instructions_neuro.started,instructions_neuro.stopped,survey_neuro.started,survey_neuro.stopped,neuro_1_rev.response,neuro_2.response,neuro_3.response,neuro_4_rev.response,survey_fear.started,survey_fear.stopped,specific_fear_spider.response,specific_fear_snake.response,thanks.started,thanks.stopped,participant,session,date,expName,psychopyVersion,frameRate,expStart,
,,,,,,,,,,,0.027758099138736725,0.09421169944107533,8.927330799400806,z,8.823697600513697,None,,,,,,,,,,,,,,,,,,,,,,,,,,,,,,,,,,,,,,,,,,,,,,,,,,,,048946,001,2023-11-06_13h59.45.536,Selektive Wahrnehmung,2023.2.3,59.97753239889479,2023-11-06 14h00.42.864186 +0100,
,,,,,,,,,,,,,,,,,8.927377600222826,29.759978599846363,,,,,,,,,,,,,,,,,,,,,,,,,,,,,,,,,,,,,,,,,,,,,,,,,,048946,001,2023-11-06_13h59.45.536,Selektive Wahrnehmung,2023.2.3,59.97753239889479,2023-11-06 14h00.42.864186 +0100,
flugzeug1,0,0,0,13,,,,,30.05888019874692,,,,,,,,,,29.79066369868815,30.05888019874692,32.05874959938228,32.82549609988928,3.065618200227618,34.531917398795485,"[300, -300]",[0.34814814814814815],[-0.30462962962962964],[1],[0],[0],[1.7055890001356602],[1],['target_find'],34.535150500014424,35.54296359978616,,,,,,,,,,,,,,,,,,,,,,,,,,,,,,,,,048946,001,2023-11-06_13h59.45.536,Selektive Wahrnehmung,2023.2.3,59.97753239889479,2023-11-06 14h00.42.864186 +0100,
gesicht2,0,1,1,9,,,,,35.67562289908528,,,,,,,,,,35.543494299054146,35.67562289908528,37.67538959905505,38.5916451998055,3.048749200999737,39.594620399177074,"[300, 300]",[0.31296296296296294],[0.28055555555555556],[1],[0],[0],[1.0025181993842125],[1],['target_find'],39.59515979886055,40.60884360037744,,,,,,,,,,,,,,,,,,,,,,,,,,,,,,,,,048946,001,2023-11-06_13h59.45.536,Selektive Wahrnehmung,2023.2.3,59.97753239889479,2023-11-06 14h00.42.864186 +0100,
spinne2,0,2,2,1,,,,,40.891813499853015,,,,,,,,,,40.609126798808575,40.891813499853015,42.89163270033896,43.64188299886882,3.0333613995462656,44.60950999893248,"[-300, 300]",[-0.20833333333333334],[0.24166666666666667],[1],[0],[0],[0.9667939990758896],[1],['target_find'],44.61003189906478,45.62609879858792,,,,,,,,,,,,,,,,,,,,,,,,,,,,,,,,,048946,001,2023-11-06_13h59.45.536,Selektive Wahrnehmung,2023.2.3,59.97753239889479,2023-11-06 14h00.42.864186 +0100,
gruppe1,0,3,3,6,,,,,45.7250193990767,,,,,,,,,,45.626764899119735,45.7250193990767,47.72490349970758,48.67476389929652,3.048741100355983,49.761875599622726,"[0, -300]",[-0.05462962962962963],[-0.35],[1],[0],[0],[1.0860743001103401],[1],['target_find'],49.76329419948161,50.775606298819184,,,,,,,,,,,,,,,,,,,,,,,,,,,,,,,,,048946,001,2023-11-06_13h59.45.536,Selektive Wahrnehmung,2023.2.3,59.97753239889479,2023-11-06 14h00.42.864186 +0100,
auto1,0,4,4,12,,,,,50.84143649972975,,,,,,,,,,50.77611690014601,50.84143649972975,52.84128809906542,53.807921098545194,2.999192200601101,54.493912698701024,"[-300, 0]",[-0.3435185185185185],[-0.008333333333333333],[1],[0],[0],[0.7181187011301517],[1],['target_find'],54.494903499260545,55.50935119949281,,,,,,,,,,,,,,,,,,,,,,,,,,,,,,,,,048946,001,2023-11-06_13h59.45.536,Selektive Wahrnehmung,2023.2.3,59.97753239889479,2023-11-06 14h00.42.864186 +0100,
zug1,0,5,5,15,,,,,55.64117289893329,,,,,,,,,,55.51023439876735,55.64117289893329,57.64124529995024,58.541442800313234,3.0324616990983486,60.07806919887662,"[-300, -300]",[-0.3055555555555556],[-0.23333333333333334],[1],[0],[0],[1.5352036990225315],[1],['target_find'],60.07948669977486,61.091941298916936,,,,,,,,,,,,,,,,,,,,,,,,,,,,,,,,,048946,001,2023-11-06_13h59.45.536,Selektive Wahrnehmung,2023.2.3,59.97753239889479,2023-11-06 14h00.42.864186 +0100,
schlange1,0,6,6,2,,,,,61.141171898692846,,,,,,,,,,61.09245149977505,61.141171898692846,63.14107679948211,64.12437460012734,3.0325348004698753,64.91298789903522,"[300, 0]",[0.30648148148148147],[-0.05740740740740741],[1],[0],[0],[0.7872804012149572],[1],['target_find'],64.91517180018127,65.9248076993972,,,,,,,,,,,,,,,,,,,,,,,,,,,,,,,,,048946,001,2023-11-06_13h59.45.536,Selektive Wahrnehmung,2023.2.3,59.97753239889479,2023-11-06 14h00.42.864186 +0100,
schlange2,0,7,7,3,,,,,65.95759649947286,,,,,,,,,,65.92512070015073,65.95759649947286,67.95748609863222,68.95761580020189,3.0328972004354,70.89301629923284,"[300, 300]",[0.33425925925925926],[0.21388888888888888],[1],[0],[0],[1.9346693009138107],[1],['target_find'],70.89402789995074,71.9084320999682,,,,,,,,,,,,,,,,,,,,,,,,,,,,,,,,,048946,001,2023-11-06_13h59.45.536,Selektive Wahrnehmung,2023.2.3,59.97753239889479,2023-11-06 14h00.42.864186 +0100,
gesicht1,0,8,8,8,,,,,71.99082819931209,,,,,,,,,,71.90909629873931,71.99082819931209,73.99053629860282,74.94044949859381,3.0320760998874903,75.77830049954355,"[-300, 0]",[-0.2777777777777778],[-0.05277777777777778],[1],[0],[0],[0.8365608993917704],[1],['target_find'],75.78048989921808,76.7917414996773,,,,,,,,,,,,,,,,,,,,,,,,,,,,,,,,,048946,001,2023-11-06_13h59.45.536,Selektive Wahrnehmung,2023.2.3,59.97753239889479,2023-11-06 14h00.42.864186 +0100,
schiff1,0,9,9,14,,,,,76.84054679982364,,,,,,,,,,76.79261719994247,76.84054679982364,78.84024989977479,79.84029310010374,3.0486816000193357,80.74407850019634,"[-300, 300]",[-0.21481481481481482],[0.27870370370370373],[1],[0],[0],[0.9027772005647421],[1],['target_find'],80.74557969905436,81.7581957001239,,,,,,,,,,,,,,,,,,,,,,,,,,,,,,,,,048946,001,2023-11-06_13h59.45.536,Selektive Wahrnehmung,2023.2.3,59.97753239889479,2023-11-06 14h00.42.864186 +0100,
gesicht3,0,10,10,10,,,,,81.8069524988532,,,,,,,,,,81.75898929871619,81.8069524988532,83.80709679983556,84.80704299919307,3.0489176008850336,85.74339829944074,"[300, 0]",[0.23333333333333334],[0.0],[1],[0],[0],[0.9353069998323917],[1],['target_find'],85.7449672985822,86.7579357996583,,,,,,,,,,,,,,,,,,,,,,,,,,,,,,,,,048946,001,2023-11-06_13h59.45.536,Selektive Wahrnehmung,2023.2.3,59.97753239889479,2023-11-06 14h00.42.864186 +0100,
person1,0,11,11,4,,,,,86.80693290010095,,,,,,,,,,86.758718598634,86.80693290010095,88.80676409974694,89.79016049951315,3.032293699681759,90.459780998528,"[0, 300]",[-0.001851851851851852],[0.2111111111111111],[1],[0],[0],[0.6688113994896412],[1],['target_find'],90.46095179952681,91.47406009957194,,,,,,,,,,,,,,,,,,,,,,,,,,,,,,,,,048946,001,2023-11-06_13h59.45.536,Selektive Wahrnehmung,2023.2.3,59.97753239889479,2023-11-06 14h00.42.864186 +0100,
spinne1,0,12,12,0,,,,,91.50647289864719,,,,,,,,,,91.47457540035248,91.50647289864719,93.50662499852479,94.50665609911084,3.032675299793482,96.95948999933898,"[300, -300]",[0.2601851851851852],[-0.2759259259259259],[1],[0],[0],[2.452012101188302],[1],['target_find'],96.96059140004218,97.97389509901404,,,,,,,,,,,,,,,,,,,,,,,,,,,,,,,,,048946,001,2023-11-06_13h59.45.536,Selektive Wahrnehmung,2023.2.3,59.97753239889479,2023-11-06 14h00.42.864186 +0100,
gesicht4,0,13,13,11,,,,,98.02319889888167,,,,,,,,,,97.97435639984906,98.02319889888167,100.02297289855778,101.00640409998596,3.0326064992696047,101.92425579950213,"[300, 0]",[0.32222222222222224],[-0.08148148148148149],[1],[0],[0],[0.9172813985496759],[1],['target_find'],101.92475369945168,102.9403219986707,,,,,,,,,,,,,,,,,,,,,,,,,,,,,,,,,048946,001,2023-11-06_13h59.45.536,Selektive Wahrnehmung,2023.2.3,59.97753239889479,2023-11-06 14h00.42.864186 +0100,
person2,0,14,14,5,,,,,102.98970989882946,,,,,,,,,,102.94082279875875,102.98970989882946,104.98940309882164,105.98959179967642,3.049338400363922,107.44194519892335,"[-300, -300]",[-0.35555555555555557],[-0.3055555555555556],[1],[0],[0],[1.4516294989734888],[1],['target_find'],107.44295690022409,108.45692609995604,,,,,,,,,,,,,,,,,,,,,,,,,,,,,,,,,048946,001,2023-11-06_13h59.45.536,Selektive Wahrnehmung,2023.2.3,59.97753239889479,2023-11-06 14h00.42.864186 +0100,
gruppe2,0,15,15,7,,,,,108.48928689956665,,,,,,,,,,108.45745109952986,108.48928689956665,110.4893300998956,111.50604240037501,2.9990433994680643,112.49266829900444,"[-300, 300]",[-0.32222222222222224],[0.25],[1],[0],[0],[1.035402599722147],[1],['target_find'],112.49397509917617,113.50648409873247,,,,,,,,,,,,,,,,,,,,,,,,,,,,,,,,,048946,001,2023-11-06_13h59.45.536,Selektive Wahrnehmung,2023.2.3,59.97753239889479,2023-11-06 14h00.42.864186 +0100,
gruppe2,1,0,16,7,,,,,113.5391469988972,,,,,,,,,,113.50695839896798,113.5391469988972,115.53907969966531,116.5390846002847,3.032682800665498,117.49150739982724,"[0, 300]",[-0.008333333333333333],[0.20555555555555555],[1],[0],[0],[0.9516780003905296],[1],['target_find'],117.49263389967382,118.50633559934795,,,,,,,,,,,,,,,,,,,,,,,,,,,,,,,,,048946,001,2023-11-06_13h59.45.536,Selektive Wahrnehmung,2023.2.3,59.97753239889479,2023-11-06 14h00.42.864186 +0100,
person2,1,1,17,5,,,,,118.53881070017815,,,,,,,,,,118.50683309882879,118.53881070017815,120.53889549896121,121.52219809964299,3.015956399962306,122.2252064999193,"[300, 0]",[0.2935185185185185],[-0.06481481481481481],[1],[0],[0],[0.7021805997937918],[1],['target_find'],122.22637349925935,123.23980120010674,,,,,,,,,,,,,,,,,,,,,,,,,,,,,,,,,048946,001,2023-11-06_13h59.45.536,Selektive Wahrnehmung,2023.2.3,59.97753239889479,2023-11-06 14h00.42.864186 +0100,
schlange2,1,2,18,3,,,,,123.27184069901705,,,,,,,,,,123.24042299948633,123.27184069901705,125.27203369885683,126.30546929873526,2.999133000150323,127.39209869876504,"[300, 300]",[0.2953703703703704],[0.33055555555555555],[1],[0],[0],[1.1517016999423504],[1],['target_find'],127.39342899993062,128.40605599991977,,,,,,,,,,,,,,,,,,,,,,,,,,,,,,,,,048946,001,2023-11-06_13h59.45.536,Selektive Wahrnehmung,2023.2.3,59.97753239889479,2023-11-06 14h00.42.864186 +0100,
gesicht3,1,3,19,10,,,,,128.45518909953535,,,,,,,,,,128.4066289998591,128.45518909953535,130.45523819886148,131.438609899953,3.0326393991708755,132.4087063986808,"[300, 300]",[0.3],[0.2740740740740741],[1],[0],[0],[0.9691311996430159],[1],['target_find'],132.41008049994707,133.42261829972267,,,,,,,,,,,,,,,,,,,,,,,,,,,,,,,,,048946,001,2023-11-06_13h59.45.536,Selektive Wahrnehmung,2023.2.3,59.97753239889479,2023-11-06 14h00.42.864186 +0100,
gesicht4,1,4,20,11,,,,,133.45497429929674,,,,,,,,,,133.42311549931765,133.45497429929674,135.45489819906652,136.47169759869576,2.99918369948864,137.22287049889565,"[300, 300]",[0.2916666666666667],[0.2722222222222222],[1],[0],[0],[0.8000280000269413],[1],['target_find'],137.2234460990876,138.23917070031166,,,,,,,,,,,,,,,,,,,,,,,,,,,,,,,,,048946,001,2023-11-06_13h59.45.536,Selektive Wahrnehmung,2023.2.3,59.97753239889479,2023-11-06 14h00.42.864186 +0100,
spinne2,1,5,21,1,,,,,138.42157479934394,,,,,,,,,,138.23977150022984,138.42157479934394,140.42149079963565,141.3050485998392,2.999123800545931,142.3074375987053,"[300, 300]",[0.21574074074074073],[0.2611111111111111],[1],[0],[0],[1.0678004007786512],[1],['target_find'],142.30860819853842,143.3222795985639,,,,,,,,,,,,,,,,,,,,,,,,,,,,,,,,,048946,001,2023-11-06_13h59.45.536,Selektive Wahrnehmung,2023.2.3,59.97753239889479,2023-11-06 14h00.42.864186 +0100,
person1,1,6,22,4,,,,,143.37107729911804,,,,,,,,,,143.32287140004337,143.37107729911804,145.3712921999395,146.3714351989329,3.0492391996085644,147.24104289896786,"[0, 300]",[0.05740740740740741],[0.33611111111111114],[1],[0],[0],[0.8687722999602556],[1],['target_find'],147.24222810007632,148.25551369972527,,,,,,,,,,,,,,,,,,,,,,,,,,,,,,,,,048946,001,2023-11-06_13h59.45.536,Selektive Wahrnehmung,2023.2.3,59.97753239889479,2023-11-06 14h00.42.864186 +0100,
auto1,1,7,23,12,,,,,148.30442029982805,,,,,,,,,,148.2561523001641,148.30442029982805,150.30457739904523,151.28803809918463,2.9990383982658386,152.07401579990983,"[0, 300]",[-0.022222222222222223],[0.2564814814814815],[1],[0],[0],[0.8182553015649319],[1],['target_find'],152.07509519904852,153.08859939873219,,,,,,,,,,,,,,,,,,,,,,,,,,,,,,,,,048946,001,2023-11-06_13h59.45.536,Selektive Wahrnehmung,2023.2.3,59.97753239889479,2023-11-06 14h00.42.864186 +0100,
gesicht1,1,8,24,8,,,,,153.13755869865417,,,,,,,,,,153.0891785994172,153.13755869865417,155.13761099986732,156.12074559926987,3.0321971010416746,157.6400204990059,"[-300, 300]",[-0.2462962962962963],[0.2675925925925926],[1],[0],[0],[1.5184995997697115],[1],['target_find'],157.64123610034585,158.65454209968448,,,,,,,,,,,,,,,,,,,,,,,,,,,,,,,,,048946,001,2023-11-06_13h59.45.536,Selektive Wahrnehmung,2023.2.3,59.97753239889479,2023-11-06 14h00.42.864186 +0100,
schlange1,1,9,25,2,,,,,158.68751860037446,,,,,,,,,,158.6548480000347,158.68751860037446,160.68743029981852,161.68753710016608,3.0332137998193502,162.4397790003568,"[300, 300]",[0.19537037037037036],[0.2222222222222222],[1],[0],[0],[0.7513095997273922],[1],['target_find'],162.4409157000482,163.45471880026162,,,,,,,,,,,,,,,,,,,,,,,,,,,,,,,,,048946,001,2023-11-06_13h59.45.536,Selektive Wahrnehmung,2023.2.3,59.97753239889479,2023-11-06 14h00.42.864186 +0100,
spinne1,1,10,26,0,,,,,163.48735249973834,,,,,,,,,,163.45522150024772,163.48735249973834,165.48733909986913,166.4873251002282,3.032686199992895,167.4389605000615,"[0, -300]",[0.014814814814814815],[-0.22592592592592592],[1],[0],[0],[0.950934199616313],[1],['target_find'],167.44066029973328,168.45464349910617,,,,,,,,,,,,,,,,,,,,,,,,,,,,,,,,,048946,001,2023-11-06_13h59.45.536,Selektive Wahrnehmung,2023.2.3,59.97753239889479,2023-11-06 14h00.42.864186 +0100,
gruppe1,1,11,27,6,,,,,168.48696149885654,,,,,,,,,,168.45515440031886,168.48696149885654,170.48702069930732,171.48683949932456,3.03225920163095,172.339383399114,"[300, 300]",[0.20092592592592592],[0.22962962962962963],[1],[0],[0],[0.8518438003957272],[1],['target_find'],172.34038710035384,173.3548290003091,,,,,,,,,,,,,,,,,,,,,,,,,,,,,,,,,048946,001,2023-11-06_13h59.45.536,Selektive Wahrnehmung,2023.2.3,59.97753239889479,2023-11-06 14h00.42.864186 +0100,
gesicht2,1,12,28,9,,,,,173.4033939987421,,,,,,,,,,173.35564789921045,173.4033939987421,175.4035243988037,176.40327859856188,3.0485006999224424,177.27243089862168,"[300, 0]",[0.28055555555555556],[0.006481481481481481],[1],[0],[0],[0.8683614004403353],[1],['target_find'],177.2737738993019,178.28778989985585,,,,,,,,,,,,,,,,,,,,,,,,,,,,,,,,,048946,001,2023-11-06_13h59.45.536,Selektive Wahrnehmung,2023.2.3,59.97753239889479,2023-11-06 14h00.42.864186 +0100,
zug1,1,13,29,15,,,,,178.33690129965544,,,,,,,,,,178.2884034998715,178.33690129965544,180.33655219897628,181.3367849998176,3.0490688011050224,182.7900294996798,"[-300, -300]",[-0.2657407407407407],[-0.25462962962962965],[1],[0],[0],[1.4523060005158186],[1],['target_find'],182.79145449958742,183.80407010018826,,,,,,,,,,,,,,,,,,,,,,,,,,,,,,,,,048946,001,2023-11-06_13h59.45.536,Selektive Wahrnehmung,2023.2.3,59.97753239889479,2023-11-06 14h00.42.864186 +0100,
flugzeug1,1,14,30,13,,,,,183.85314039885998,,,,,,,,,,183.8045680001378,183.85314039885998,185.8532566986978,186.81991919875145,3.015930600464344,188.42176489904523,"[-300, 300]",[-0.24351851851851852],[0.2777777777777778],[1],[0],[0],[1.6011654995381832],[1],['target_find'],188.4226271994412,189.4372726995498,,,,,,,,,,,,,,,,,,,,,,,,,,,,,,,,,048946,001,2023-11-06_13h59.45.536,Selektive Wahrnehmung,2023.2.3,59.97753239889479,2023-11-06 14h00.42.864186 +0100,
schiff1,1,15,31,14,,,,,189.46970620006323,,,,,,,,,,189.4378769993782,189.46970620006323,191.4697299003601,192.48640229925513,2.9991055000573397,193.52249700017273,"[300, 300]",[0.2462962962962963],[0.2675925925925926],[1],[0],[0],[1.084934400394559],[1],['target_find'],193.5235574990511,194.53703480027616,,,,,,,,,,,,,,,,,,,,,,,,,,,,,,,,,048946,001,2023-11-06_13h59.45.536,Selektive Wahrnehmung,2023.2.3,59.97753239889479,2023-11-06 14h00.42.864186 +0100,
gesicht1,2,0,32,8,,,,,194.5691996999085,,,,,,,,,,194.53765830025077,194.5691996999085,196.56905939988792,197.56949169933796,2.999117599800229,198.30604099854827,"[-300, 300]",[-0.37962962962962965],[0.30277777777777776],[1],[0],[0],[0.7691040001809597],[1],['target_find'],198.3065386991948,199.31929589994252,,,,,,,,,,,,,,,,,,,,,,,,,,,,,,,,,048946,001,2023-11-06_13h59.45.536,Selektive Wahrnehmung,2023.2.3,59.97753239889479,2023-11-06 14h00.42.864186 +0100,
gruppe1,2,1,33,6,,,,,199.35286239907146,,,,,,,,,,199.31955579854548,199.35286239907146,201.35224629938602,202.33581539988518,3.016788098961115,203.52240880019963,"[-300, -300]",[-0.30833333333333335],[-0.27685185185185185],[1],[0],[0],[1.1858540009707212],[1],['target_find'],203.52289769984782,204.53601959906518,,,,,,,,,,,,,,,,,,,,,,,,,,,,,,,,,048946,001,2023-11-06_13h59.45.536,Selektive Wahrnehmung,2023.2.3,59.97753239889479,2023-11-06 14h00.42.864186 +0100,
spinne2,2,2,34,1,,,,,204.71913489885628,,,,,,,,,,204.53631510026753,204.71913489885628,206.7189163994044,207.55246100015938,3.0165395010262728,208.65373919904232,"[0, 300]",[-0.025],[0.21666666666666667],[1],[0],[0],[1.1007017996162176],[1],['target_find'],208.65427059866488,209.669739600271,,,,,,,,,,,,,,,,,,,,,,,,,,,,,,,,,048946,001,2023-11-06_13h59.45.536,Selektive Wahrnehmung,2023.2.3,59.97753239889479,2023-11-06 14h00.42.864186 +0100,
schlange1,2,3,35,2,,,,,209.7357890997082,,,,,,,,,,209.67034019902349,209.7357890997082,211.73552949912846,212.7355391997844,3.0658763982355595,213.7715801987797,"[-300, 0]",[-0.22962962962962963],[-0.009259259259259259],[1],[0],[0],[1.0352811999619007],[1],['target_find'],213.77268639951944,214.78659969940782,,,,,,,,,,,,,,,,,,,,,,,,,,,,,,,,,048946,001,2023-11-06_13h59.45.536,Selektive Wahrnehmung,2023.2.3,59.97753239889479,2023-11-06 14h00.42.864186 +0100,
spinne1,2,4,36,0,,,,,214.83530339971185,,,,,,,,,,214.78736330009997,214.83530339971185,216.83531599864364,217.81866549886763,3.0321622993797064,219.96992969885468,"[-300, -300]",[-0.2740740740740741],[-0.262037037037037],[1],[0],[0],[2.150679798796773],[1],['target_find'],219.97041239961982,220.9856850001961,,,,,,,,,,,,,,,,,,,,,,,,,,,,,,,,,048946,001,2023-11-06_13h59.45.536,Selektive Wahrnehmung,2023.2.3,59.97753239889479,2023-11-06 14h00.42.864186 +0100,
gruppe2,2,5,37,7,,,,,221.01848729886115,,,,,,,,,,220.9859942998737,221.01848729886115,223.01846260018647,224.00187020003796,3.0162739008665085,228.00175969861448,"[-300, -300]",[],[],[],[],[],[],[],[],228.0023326985538,229.00226629897952,228.00156849995255,,,,,,,,,,,,,,,,,,,,,,,,,,,,,,,,048946,001,2023-11-06_13h59.45.536,Selektive Wahrnehmung,2023.2.3,59.97753239889479,2023-11-06 14h00.42.864186 +0100,
schiff1,2,6,38,14,,,,,229.03490499965847,,,,,,,,,,229.002768099308,229.03490499965847,231.03475520014763,232.03484099917114,2.9990950003266335,233.43608669936657,"[-300, -300]",[-0.3194444444444444],[-0.3175925925925926],[1],[0],[0],[1.4340107012540102],[1],['target_find'],233.43661190010607,234.45215000025928,,,,,,,,,,,,,,,,,,,,,,,,,,,,,,,,,048946,001,2023-11-06_13h59.45.536,Selektive Wahrnehmung,2023.2.3,59.97753239889479,2023-11-06 14h00.42.864186 +0100,
person1,2,7,39,4,,,,,234.48461479879916,,,,,,,,,,234.452720599249,234.48461479879916,236.48458419926465,237.46802029944956,3.0159526988863945,238.33819229900837,"[300, 300]",[0.20925925925925926],[0.24166666666666667],[1],[0],[0],[0.8696583006531],[1],['target_find'],238.33872129954398,239.35234989970922,,,,,,,,,,,,,,,,,,,,,,,,,,,,,,,,,048946,001,2023-11-06_13h59.45.536,Selektive Wahrnehmung,2023.2.3,59.97753239889479,2023-11-06 14h00.42.864186 +0100,
person2,2,8,40,5,,,,,239.4010421987623,,,,,,,,,,239.35311359912157,239.4010421987623,241.40101349912584,242.4010496996343,3.04877720028162,243.30315960012376,"[300, 300]",[0.20462962962962963],[0.2351851851851852],[1],[0],[0],[0.901366300880909],[1],['target_find'],243.30415059998631,244.31903749890625,,,,,,,,,,,,,,,,,,,,,,,,,,,,,,,,,048946,001,2023-11-06_13h59.45.536,Selektive Wahrnehmung,2023.2.3,59.97753239889479,2023-11-06 14h00.42.864186 +0100,
gesicht2,2,9,41,9,,,,,244.3675711993128,,,,,,,,,,244.31986000016332,244.3675711993128,246.36754320003092,247.36771789938211,3.0487465988844633,248.2521901000291,"[-300, 0]",[-0.19722222222222222],[-0.04537037037037037],[1],[0],[0],[0.8839318007230759],[1],['target_find'],248.25271849893034,249.268628699705,,,,,,,,,,,,,,,,,,,,,,,,,,,,,,,,,048946,001,2023-11-06_13h59.45.536,Selektive Wahrnehmung,2023.2.3,59.97753239889479,2023-11-06 14h00.42.864186 +0100,
schlange2,2,10,42,3,,,,,249.31739909946918,,,,,,,,,,249.26934519968927,249.31739909946918,251.31728019937873,252.3173072002828,3.048753000795841,253.31969069875777,"[-300, 300]",[-0.24444444444444444],[0.2212962962962963],[1],[0],[0],[1.0015778001397848],[1],['target_find'],253.32087119854987,254.33484469912946,,,,,,,,,,,,,,,,,,,,,,,,,,,,,,,,,048946,001,2023-11-06_13h59.45.536,Selektive Wahrnehmung,2023.2.3,59.97753239889479,2023-11-06 14h00.42.864186 +0100,
auto1,2,11,43,12,,,,,254.36720549874008,,,,,,,,,,254.3353562001139,254.36720549874008,256.3671236988157,257.366985399276,2.9990106001496315,258.1697849985212,"[0, 300]",[0.03148148148148148],[0.19444444444444445],[1],[0],[0],[0.8348907008767128],[1],['target_find'],258.17076709866524,259.1846151985228,,,,,,,,,,,,,,,,,,,,,,,,,,,,,,,,,048946,001,2023-11-06_13h59.45.536,Selektive Wahrnehmung,2023.2.3,59.97753239889479,2023-11-06 14h00.42.864186 +0100,
zug1,2,12,44,15,,,,,259.2170924991369,,,,,,,,,,259.1851984988898,259.2170924991369,261.2169739995152,262.2504875995219,3.0659453999251127,263.07000439986587,"[0, -300]",[-0.03518518518518519],[-0.24722222222222223],[1],[0],[0],[0.8186793010681868],[1],['target_find'],263.07118139974773,264.0847523994744,,,,,,,,,,,,,,,,,,,,,,,,,,,,,,,,,048946,001,2023-11-06_13h59.45.536,Selektive Wahrnehmung,2023.2.3,59.97753239889479,2023-11-06 14h00.42.864186 +0100,
flugzeug1,2,13,45,13,,,,,264.1335086990148,,,,,,,,,,264.085528800264,264.1335086990148,266.13347479887307,267.11687189899385,3.032200099900365,268.4356611985713,"[-300, -300]",[-0.2796296296296296],[-0.2796296296296296],[1],[0],[0],[1.318096399307251],[1],['target_find'],268.4364700987935,269.45085489936173,,,,,,,,,,,,,,,,,,,,,,,,,,,,,,,,,048946,001,2023-11-06_13h59.45.536,Selektive Wahrnehmung,2023.2.3,59.97753239889479,2023-11-06 14h00.42.864186 +0100,
gesicht3,2,14,46,10,,,,,269.50006589852273,,,,,,,,,,269.4514175988734,269.50006589852273,271.50006509944797,272.48340709879994,3.0326298996806145,273.30129759944975,"[0, -300]",[0.008333333333333333],[-0.23333333333333334],[1],[0],[0],[0.8173417001962662],[1],['target_find'],273.3017945997417,274.31754279881716,,,,,,,,,,,,,,,,,,,,,,,,,,,,,,,,,048946,001,2023-11-06_13h59.45.536,Selektive Wahrnehmung,2023.2.3,59.97753239889479,2023-11-06 14h00.42.864186 +0100,
gesicht4,2,15,47,11,,,,,274.3497564997524,,,,,,,,,,274.3181638997048,274.3497564997524,276.34985039941967,277.3665025997907,3.0490373000502586,278.4027504995465,"[-300, 300]",[-0.3527777777777778],[0.22777777777777777],[1],[0],[0],[1.0354031007736921],[1],['target_find'],278.40384169854224,279.41713119857013,,,,,,,,,,,,,,,,,,,,,,,,,,,,,,,,,048946,001,2023-11-06_13h59.45.536,Selektive Wahrnehmung,2023.2.3,59.97753239889479,2023-11-06 14h00.42.864186 +0100,
schlange1,3,0,48,2,,,,,279.4496762994677,,,,,,,,,,279.4177518002689,279.4496762994677,281.4495839998126,282.4497301001102,3.0328764002770185,283.7524148002267,"[300, -300]",[0.2638888888888889],[-0.34629629629629627],[1],[0],[0],[1.301418399438262],[1],['target_find'],283.75364239886403,284.7672525998205,,,,,,,,,,,,,,,,,,,,,,,,,,,,,,,,,048946,001,2023-11-06_13h59.45.536,Selektive Wahrnehmung,2023.2.3,59.97753239889479,2023-11-06 14h00.42.864186 +0100,
gesicht3,3,1,49,10,,,,,284.81636989861727,,,,,,,,,,284.76786240004003,284.81636989861727,286.81621089950204,287.8162152990699,3.049039799720049,288.60032299906015,"[300, 300]",[0.26296296296296295],[0.23055555555555557],[1],[0],[0],[0.7835493013262749],[1],['target_find'],288.60077410005033,289.6168999001384,,,,,,,,,,,,,,,,,,,,,,,,,,,,,,,,,048946,001,2023-11-06_13h59.45.536,Selektive Wahrnehmung,2023.2.3,59.97753239889479,2023-11-06 14h00.42.864186 +0100,
flugzeug1,3,2,50,13,,,,,289.64916369877756,,,,,,,,,,289.61751499958336,289.64916369877756,291.64926009997725,292.649305799976,3.032674601301551,293.43509710021317,"[0, 300]",[0.03981481481481482],[0.2212962962962963],[1],[0],[0],[0.7847600001841784],[1],['target_find'],293.43619689904153,294.4504038989544,,,,,,,,,,,,,,,,,,,,,,,,,,,,,,,,,048946,001,2023-11-06_13h59.45.536,Selektive Wahrnehmung,2023.2.3,59.97753239889479,2023-11-06 14h00.42.864186 +0100,
schlange2,3,3,51,3,,,,,294.4992650002241,,,,,,,,,,294.4511593990028,294.4992650002241,296.49895969964564,297.48229639977217,3.0321194007992744,298.65045440010726,"[0, 300]",[0.013888888888888888],[0.17314814814814813],[1],[0],[0],[1.167391700670123],[1],['target_find'],298.6509376987815,299.6663176994771,,,,,,,,,,,,,,,,,,,,,,,,,,,,,,,,,048946,001,2023-11-06_13h59.45.536,Selektive Wahrnehmung,2023.2.3,59.97753239889479,2023-11-06 14h00.42.864186 +0100,
gesicht1,3,4,52,8,,,,,299.6990561988205,,,,,,,,,,299.6668103002012,299.6990561988205,301.69888019934297,302.6824309993535,3.0164174996316433,304.135040698573,"[-300, -300]",[-0.37037037037037035],[-0.29814814814814816],[1],[0],[0],[1.4515253007411957],[1],['target_find'],304.13612389937043,305.1497403997928,,,,,,,,,,,,,,,,,,,,,,,,,,,,,,,,,048946,001,2023-11-06_13h59.45.536,Selektive Wahrnehmung,2023.2.3,59.97753239889479,2023-11-06 14h00.42.864186 +0100,
spinne2,3,5,53,1,,,,,305.34878679923713,,,,,,,,,,305.15036309883,305.34878679923713,307.3485253993422,308.21531319990754,3.065648101270199,309.1517364997417,"[-300, -300]",[-0.35648148148148145],[-0.2861111111111111],[1],[0],[0],[0.9356303997337818],[1],['target_find'],309.15285119973123,310.16626579873264,,,,,,,,,,,,,,,,,,,,,,,,,,,,,,,,,048946,001,2023-11-06_13h59.45.536,Selektive Wahrnehmung,2023.2.3,59.97753239889479,2023-11-06 14h00.42.864186 +0100,
gruppe1,3,6,54,6,,,,,310.2150352988392,,,,,,,,,,310.1668544989079,310.2150352988392,312.2152936998755,313.2319363001734,3.0657556988298893,314.4846107997,"[-300, 300]",[-0.20462962962962963],[0.25],[1],[0],[0],[1.2519036997109652],[1],['target_find'],314.48562419973314,315.49942060001194,,,,,,,,,,,,,,,,,,,,,,,,,,,,,,,,,048946,001,2023-11-06_13h59.45.536,Selektive Wahrnehmung,2023.2.3,59.97753239889479,2023-11-06 14h00.42.864186 +0100,
auto1,3,7,55,12,,,,,315.54854299873114,,,,,,,,,,315.50010059960186,315.54854299873114,317.54834169894457,318.548240698874,3.048894200474024,319.7176748998463,"[300, 300]",[0.27685185185185185],[0.19907407407407407],[1],[0],[0],[1.1686279010027647],[1],['target_find'],319.7188315987587,320.731891900301,,,,,,,,,,,,,,,,,,,,,,,,,,,,,,,,,048946,001,2023-11-06_13h59.45.536,Selektive Wahrnehmung,2023.2.3,59.97753239889479,2023-11-06 14h00.42.864186 +0100,
gesicht4,3,8,56,11,,,,,320.76482339948416,,,,,,,,,,320.7321603000164,320.76482339948416,322.764558698982,323.74791389890015,3.016109600663185,324.56711599975824,"[-300, 300]",[-0.2601851851851852],[0.22777777777777777],[1],[0],[0],[0.8184214998036623],[1],['target_find'],324.5680985990912,325.58198720030487,,,,,,,,,,,,,,,,,,,,,,,,,,,,,,,,,048946,001,2023-11-06_13h59.45.536,Selektive Wahrnehmung,2023.2.3,59.97753239889479,2023-11-06 14h00.42.864186 +0100,
gruppe2,3,9,57,7,,,,,325.6147550996393,,,,,,,,,,325.58247659914196,325.6147550996393,327.6146162003279,328.61454019881785,3.0326297990977764,329.46721039898694,"[300, 0]",[0.35185185185185186],[-0.10277777777777777],[1],[0],[0],[0.8518481999635696],[1],['target_find'],329.46838679909706,330.4816525001079,,,,,,,,,,,,,,,,,,,,,,,,,,,,,,,,,048946,001,2023-11-06_13h59.45.536,Selektive Wahrnehmung,2023.2.3,59.97753239889479,2023-11-06 14h00.42.864186 +0100,
spinne1,3,10,58,0,,,,,330.51433810032904,,,,,,,,,,330.48216939903796,330.51433810032904,332.51444130018353,333.4977385997772,3.016185600310564,334.2847168985754,"[-300, -300]",[-0.2657407407407407],[-0.24259259259259258],[1],[0],[0],[0.7861586008220911],[1],['target_find'],334.28581039980054,335.29796629957855,,,,,,,,,,,,,,,,,,,,,,,,,,,,,,,,,048946,001,2023-11-06_13h59.45.536,Selektive Wahrnehmung,2023.2.3,59.97753239889479,2023-11-06 14h00.42.864186 +0100,
gesicht2,3,11,59,9,,,,,335.33100609853864,,,,,,,,,,335.2982406001538,335.33100609853864,337.3309514988214,338.314203100279,3.0163403004407883,339.0323503986001,"[0, 300]",[0.010185185185185186],[0.23981481481481481],[1],[0],[0],[0.7176070008426905],[1],['target_find'],339.0328767988831,340.04823070019484,,,,,,,,,,,,,,,,,,,,,,,,,,,,,,,,,048946,001,2023-11-06_13h59.45.536,Selektive Wahrnehmung,2023.2.3,59.97753239889479,2023-11-06 14h00.42.864186 +0100,
person2,3,12,60,5,,,,,340.0807922985405,,,,,,,,,,340.048823999241,340.0807922985405,342.0807981994003,343.0642726998776,3.0163265988230705,343.74866689927876,"[0, 300]",[0.025925925925925925],[0.24166666666666667],[1],[0],[0],[0.6834134012460709],[1],['target_find'],343.74920249916613,344.76483509875834,,,,,,,,,,,,,,,,,,,,,,,,,,,,,,,,,048946,001,2023-11-06_13h59.45.536,Selektive Wahrnehmung,2023.2.3,59.97753239889479,2023-11-06 14h00.42.864186 +0100,
person1,3,13,61,4,,,,,344.8137598987669,,,,,,,,,,344.765426998958,344.8137598987669,346.81389839947224,347.7803891003132,3.0156271997839212,348.71651509962976,"[300, 0]",[0.28055555555555556],[-0.04814814814814815],[1],[0],[0],[0.9352973997592926],[1],['target_find'],348.71761239878833,349.73114719986916,,,,,,,,,,,,,,,,,,,,,,,,,,,,,,,,,048946,001,2023-11-06_13h59.45.536,Selektive Wahrnehmung,2023.2.3,59.97753239889479,2023-11-06 14h00.42.864186 +0100,
schiff1,3,14,62,14,,,,,349.76358239911497,,,,,,,,,,349.731689799577,349.76358239911497,351.7637082003057,352.76345890015364,3.0323817003518343,353.8833181988448,"[300, -300]",[0.20185185185185187],[-0.2722222222222222],[1],[0],[0],[1.1189478989690542],[1],['target_find'],353.8844617996365,354.8979046996683,,,,,,,,,,,,,,,,,,,,,,,,,,,,,,,,,048946,001,2023-11-06_13h59.45.536,Selektive Wahrnehmung,2023.2.3,59.97753239889479,2023-11-06 14h00.42.864186 +0100,
zug1,3,15,63,15,,,,,354.9470271989703,,,,,,,,,,354.898520398885,354.9470271989703,356.9468444995582,357.946589699015,3.0487478002905846,359.1323546990752,"[300, 300]",[0.24351851851851852],[0.2],[1],[0],[0],[1.1850854996591806],[1],['target_find'],359.13328230008483,360.1478361990303,,,,,,,,,,,,,,,,,,,,,,,,,,,,,,,,,048946,001,2023-11-06_13h59.45.536,Selektive Wahrnehmung,2023.2.3,59.97753239889479,2023-11-06 14h00.42.864186 +0100,
gruppe1,4,0,64,6,,,,,360.18024619854987,,,,,,,,,,360.1486051995307,360.18024619854987,362.17992639914155,363.19673050008714,3.04897159896791,363.93276499956846,"[-300, 0]",[-0.27037037037037037],[-0.024074074074074074],[1],[0],[0],[0.7351929005235434],[1],['target_find'],363.9339004997164,364.94777119904757,,,,,,,,,,,,,,,,,,,,,,,,,,,,,,,,,048946,001,2023-11-06_13h59.45.536,Selektive Wahrnehmung,2023.2.3,59.97753239889479,2023-11-06 14h00.42.864186 +0100,
schiff1,4,1,65,14,,,,,364.9965610988438,,,,,,,,,,364.94854969903827,364.9965610988438,366.9963908996433,367.97959899902344,3.031872298568487,368.8322142995894,"[0, -300]",[0.001851851851851852],[-0.26944444444444443],[1],[0],[0],[0.8518273998051882],[1],['target_find'],368.8333773985505,369.84715939871967,,,,,,,,,,,,,,,,,,,,,,,,,,,,,,,,,048946,001,2023-11-06_13h59.45.536,Selektive Wahrnehmung,2023.2.3,59.97753239889479,2023-11-06 14h00.42.864186 +0100,
zug1,4,2,66,15,,,,,369.87985559925437,,,,,,,,,,369.8476768992841,369.87985559925437,371.8795489985496,372.87932810001075,3.0322296004742384,373.61438219994307,"[0, 300]",[0.002777777777777778],[0.21851851851851853],[1],[0],[0],[0.7345377001911402],[1],['target_find'],373.61491379886866,374.6299318000674,,,,,,,,,,,,,,,,,,,,,,,,,,,,,,,,,048946,001,2023-11-06_13h59.45.536,Selektive Wahrnehmung,2023.2.3,59.97753239889479,2023-11-06 14h00.42.864186 +0100,
schlange1,4,3,67,2,,,,,374.66291519999504,,,,,,,,,,374.6302105989307,374.66291519999504,376.6627795994282,377.64603129960597,3.0163863990455866,378.38065399974585,"[-300, 0]",[-0.19722222222222222],[-0.003703703703703704],[1],[0],[0],[0.7338167000561953],[1],['target_find'],378.38114759884775,379.3972867000848,,,,,,,,,,,,,,,,,,,,,,,,,,,,,,,,,048946,001,2023-11-06_13h59.45.536,Selektive Wahrnehmung,2023.2.3,59.97753239889479,2023-11-06 14h00.42.864186 +0100,
spinne1,4,4,68,0,,,,,379.4460342992097,,,,,,,,,,379.3980475999415,379.4460342992097,381.4458929002285,382.42943860031664,3.032421998679638,383.36592119932175,"[-300, -300]",[-0.21666666666666667],[-0.22037037037037038],[1],[0],[0],[0.9352424014359713],[1],['target_find'],383.3672770000994,384.3792105000466,,,,,,,,,,,,,,,,,,,,,,,,,,,,,,,,,048946,001,2023-11-06_13h59.45.536,Selektive Wahrnehmung,2023.2.3,59.97753239889479,2023-11-06 14h00.42.864186 +0100,
person1,4,5,69,4,,,,,384.41225549951196,,,,,,,,,,384.3794510997832,384.41225549951196,386.41229979880154,387.3957255985588,3.0166062004864216,388.68168910034,"[300, -300]",[0.19444444444444445],[-0.23981481481481481],[1],[0],[0],[1.285454899072647],[1],['target_find'],388.68222039937973,389.6963291987777,,,,,,,,,,,,,,,,,,,,,,,,,,,,,,,,,048946,001,2023-11-06_13h59.45.536,Selektive Wahrnehmung,2023.2.3,59.97753239889479,2023-11-06 14h00.42.864186 +0100,
spinne2,4,6,70,1,,,,,389.89563559927046,,,,,,,,,,389.69683169946074,389.89563559927046,391.8955103997141,392.7288571987301,3.032617799937725,394.5480831991881,"[-300, 0]",[-0.1814814814814815],[-0.02962962962962963],[1],[0],[0],[1.8184011988341808],[1],['target_find'],394.54923499934375,395.56286790035665,,,,,,,,,,,,,,,,,,,,,,,,,,,,,,,,,048946,001,2023-11-06_13h59.45.536,Selektive Wahrnehmung,2023.2.3,59.97753239889479,2023-11-06 14h00.42.864186 +0100,
flugzeug1,4,7,71,13,,,,,395.6288042999804,,,,,,,,,,395.5633487999439,395.6288042999804,397.62872919999063,398.6120151989162,3.0492251999676228,399.5988058000803,"[300, 0]",[0.24537037037037038],[-0.05740740740740741],[1],[0],[0],[0.9858116991817951],[1],['target_find'],399.60021219961345,400.6123377997428,,,,,,,,,,,,,,,,,,,,,,,,,,,,,,,,,048946,001,2023-11-06_13h59.45.536,Selektive Wahrnehmung,2023.2.3,59.97753239889479,2023-11-06 14h00.42.864186 +0100,
gesicht2,4,8,72,9,,,,,400.645218199119,,,,,,,,,,400.6126239988953,400.645218199119,402.64496989920735,403.66176570020616,3.049573300406337,404.5141707994044,"[-300, 0]",[-0.25833333333333336],[-0.003703703703703704],[1],[0],[0],[0.8515901006758213],[1],['target_find'],404.5150879994035,405.52952319942415,,,,,,,,,,,,,,,,,,,,,,,,,,,,,,,,,048946,001,2023-11-06_13h59.45.536,Selektive Wahrnehmung,2023.2.3,59.97753239889479,2023-11-06 14h00.42.864186 +0100,
gesicht1,4,9,73,8,,,,,405.5784179996699,,,,,,,,,,405.530160298571,405.5784179996699,407.5782065000385,408.578011399135,3.048539301380515,409.5646983999759,"[-300, 0]",[-0.25462962962962965],[0.006481481481481481],[1],[0],[0],[0.9859069995582104],[1],['target_find'],409.56574789993465,410.57814329862595,,,,,,,,,,,,,,,,,,,,,,,,,,,,,,,,,048946,001,2023-11-06_13h59.45.536,Selektive Wahrnehmung,2023.2.3,59.97753239889479,2023-11-06 14h00.42.864186 +0100,
schlange2,4,10,74,3,,,,,410.61165810003877,,,,,,,,,,410.5783711988479,410.61165810003877,412.61129030026495,413.61118139885366,3.0331130996346474,415.2475265990943,"[300, -300]",[0.38425925925925924],[-0.3175925925925926],[1],[0],[0],[1.6355494000017643],[1],['target_find'],415.2486844994128,416.2622276991606,,,,,,,,,,,,,,,,,,,,,,,,,,,,,,,,,048946,001,2023-11-06_13h59.45.536,Selektive Wahrnehmung,2023.2.3,59.97753239889479,2023-11-06 14h00.42.864186 +0100,
gesicht4,4,11,75,11,,,,,416.29492509923875,,,,,,,,,,416.2628060989082,416.29492509923875,418.2944818995893,419.2946306988597,3.032531199976802,420.21422099880874,"[300, 300]",[0.26944444444444443],[0.24166666666666667],[1],[0],[0],[0.9186863992363214],[1],['target_find'],420.2153139002621,421.2287999987602,,,,,,,,,,,,,,,,,,,,,,,,,,,,,,,,,048946,001,2023-11-06_13h59.45.536,Selektive Wahrnehmung,2023.2.3,59.97753239889479,2023-11-06 14h00.42.864186 +0100,
gesicht3,4,12,76,10,,,,,421.26100439950824,,,,,,,,,,421.22942090034485,421.26100439950824,423.2610922995955,424.2778903003782,2.9990953989326954,424.9639414995909,"[0, -300]",[-0.023148148148148147],[-0.29907407407407405],[1],[0],[0],[0.7347766999155283],[1],['target_find'],424.9651107992977,425.9789080992341,,,,,,,,,,,,,,,,,,,,,,,,,,,,,,,,,048946,001,2023-11-06_13h59.45.536,Selektive Wahrnehmung,2023.2.3,59.97753239889479,2023-11-06 14h00.42.864186 +0100,
auto1,4,13,77,12,,,,,426.0274575985968,,,,,,,,,,425.9797859992832,426.0274575985968,428.0274934992194,429.0106640998274,3.0318001993000507,430.19679779931903,"[-300, -300]",[-0.29259259259259257],[-0.29444444444444445],[1],[0],[0],[1.1853299997746944],[1],['target_find'],430.1982718985528,431.21180769987404,,,,,,,,,,,,,,,,,,,,,,,,,,,,,,,,,048946,001,2023-11-06_13h59.45.536,Selektive Wahrnehmung,2023.2.3,59.97753239889479,2023-11-06 14h00.42.864186 +0100,
gruppe2,4,14,78,7,,,,,431.2441018000245,,,,,,,,,,431.2124252002686,431.2441018000245,433.2439864985645,434.2606536988169,3.0489188004285097,435.24674160033464,"[-300, 0]",[-0.23796296296296296],[0.007407407407407408],[1],[0],[0],[0.9852789994329214],[1],['target_find'],435.2478905003518,436.2615683991462,,,,,,,,,,,,,,,,,,,,,,,,,,,,,,,,,048946,001,2023-11-06_13h59.45.536,Selektive Wahrnehmung,2023.2.3,59.97753239889479,2023-11-06 14h00.42.864186 +0100,
person2,4,15,79,5,,,,,436.2939550988376,,,,,,,,,,436.26222599856555,436.2939550988376,438.29395049996674,439.29399809986353,3.0325038004666567,439.9463330991566,"[-300, -300]",[-0.3611111111111111],[-0.28425925925925927],[1],[0],[0],[0.651841601356864],[1],['target_find'],439.9468131996691,440.9616726003587,,,,,,,,,,,,,,,,,,,,,,,,,,,,,,,,,048946,001,2023-11-06_13h59.45.536,Selektive Wahrnehmung,2023.2.3,59.97753239889479,2023-11-06 14h00.42.864186 +0100,
,,,,,0,0,0,0,448.8097973000258,,,,,,,,,,,,,,,,,,,,,,,,,,,,440.9896636996418,445.9282111991197,445.92823989875615,448.7109880987555,448.71214039996266,465.7830336987972,3.0,1.0,flugzeug1,,,,,,,,,,,,,,,,,,,,,,,048946,001,2023-11-06_13h59.45.536,Selektive Wahrnehmung,2023.2.3,59.97753239889479,2023-11-06 14h00.42.864186 +0100,
,,,,,1,0,1,0,465.82730219885707,,,,,,,,,,,,,,,,,,,,,,,,,,,,,,,,465.7834124993533,475.79932359978557,3.0,1.0,schlange1,,,,,,,,,,,,,,,,,,,,,,,048946,001,2023-11-06_13h59.45.536,Selektive Wahrnehmung,2023.2.3,59.97753239889479,2023-11-06 14h00.42.864186 +0100,
,,,,,2,0,2,0,475.84338929876685,,,,,,,,,,,,,,,,,,,,,,,,,,,,,,,,475.79965109936893,483.53216129913926,4.0,1.0,gesicht1,,,,,,,,,,,,,,,,,,,,,,,048946,001,2023-11-06_13h59.45.536,Selektive Wahrnehmung,2023.2.3,59.97753239889479,2023-11-06 14h00.42.864186 +0100,
,,,,,3,0,3,0,483.57652819901705,,,,,,,,,,,,,,,,,,,,,,,,,,,,,,,,483.53248849883676,488.5826656986028,1.0,4.0,gruppe2,,,,,,,,,,,,,,,,,,,,,,,048946,001,2023-11-06_13h59.45.536,Selektive Wahrnehmung,2023.2.3,59.97753239889479,2023-11-06 14h00.42.864186 +0100,
,,,,,4,0,4,0,488.62496970035136,,,,,,,,,,,,,,,,,,,,,,,,,,,,,,,,488.5829681996256,495.631832299754,1.0,4.0,schlange2,,,,,,,,,,,,,,,,,,,,,,,048946,001,2023-11-06_13h59.45.536,Selektive Wahrnehmung,2023.2.3,59.97753239889479,2023-11-06 14h00.42.864186 +0100,
,,,,,,,,,,,,,,,,,,,,,,,,,,,,,,,,,,,,,,,,,,,,,,495.6692132987082,501.3281513992697, 18 ,1.0,501.328172698617,514.0811710003763,1.0,1.0,514.0811922997236,518.0759121999145,518.0759579986334,543.2779885996133,4.0,2.0,4.0,2.0,543.2780173998326,552.9964732993394,2.0,3.0,552.9964947998524,556.5896393992007,,,,,,,,
