Target,trials.thisRepN,trials.thisTrialN,trials.thisN,trials.thisIndex,trials_2.thisRepN,trials_2.thisTrialN,trials_2.thisN,trials_2.thisIndex,thisRow.t,notes,Data_transparency.started,key_resp_data_transp.started,Data_transparency.stopped,key_resp_data_transp.keys,key_resp_data_transp.rt,key_resp_data_transp.duration,instructions.started,instructions.stopped,trial.started,target_show.started,target_show.stopped,target_find.started,mouse.started,trial.stopped,target_position_x_y,mouse.x,mouse.y,mouse.leftButton,mouse.midButton,mouse.rightButton,mouse.time,mouse.corr,mouse.clicked_name,feedback.started,feedback.stopped,instructions_survey.started,instructions_survey.stopped,instructions_ratings.started,instructions_ratings.stopped,survey_ratings.started,survey_ratings.stopped,furcht.response,liebenswert.response,rated_image,survey_gen.started,survey_gen.stopped,age.text,gender.response,survey_games.started,survey_games.stopped,pc_frequency.response,reaction_games_frequency.response,instructions_neuro.started,instructions_neuro.stopped,survey_neuro.started,survey_neuro.stopped,neuro_1_rev.response,neuro_2.response,neuro_3.response,neuro_4_rev.response,survey_fear.started,survey_fear.stopped,specific_fear_spider.response,specific_fear_snake.response,thanks.started,participant,session,date,expName,psychopyVersion,frameRate,expStart,
,,,,,,,,,,,0.13258399999995163,0.18230010000024777,6.3646285000004355,z,6.172826500000156,None,,,,,,,,,,,,,,,,,,,,,,,,,,,,,,,,,,,,,,,,,,,,,,,,,,067461,001,2023-11-06_13h32.04.059,Selektive Wahrnehmung,2023.2.3,60.002508105054844,2023-11-06 13h32.51.420987 +0100,
,,,,,,,,,,,,,,,,,6.364686500000062,23.664047900000696,,,,,,,,,,,,,,,,,,,,,,,,,,,,,,,,,,,,,,,,,,,,,,,,067461,001,2023-11-06_13h32.04.059,Selektive Wahrnehmung,2023.2.3,60.002508105054844,2023-11-06 13h32.51.420987 +0100,
gruppe1,0,0,0,6,,,,,23.84827040000073,,,,,,,,,,23.69533709999996,23.84827040000073,25.862846100000752,26.69469780000054,3.030700799999977,27.93783750000057,"[0, 300]",[0.024074074074074074],[0.34074074074074073],[1],[0],[0],[1.2426140999996278],[1],['target_find'],27.95220470000004,28.962701800000104,,,,,,,,,,,,,,,,,,,,,,,,,,,,,,,067461,001,2023-11-06_13h32.04.059,Selektive Wahrnehmung,2023.2.3,60.002508105054844,2023-11-06 13h32.51.420987 +0100,
gesicht3,0,1,1,10,,,,,29.111436200000753,,,,,,,,,,28.963466200000767,29.111436200000753,31.11151289999998,32.027884500000255,3.065407800000685,33.11422880000009,"[0, -300]",[-0.08518518518518518],[-0.32222222222222224],[1],[0],[0],[1.0852874000001975],[1],['target_find'],33.115295600000536,34.128916700000445,,,,,,,,,,,,,,,,,,,,,,,,,,,,,,,067461,001,2023-11-06_13h32.04.059,Selektive Wahrnehmung,2023.2.3,60.002508105054844,2023-11-06 13h32.51.420987 +0100,
spinne2,0,2,2,1,,,,,34.379123300000174,,,,,,,,,,34.129458800000066,34.379123300000174,36.37908570000036,37.16088650000074,3.032020000000557,38.031105000000025,"[300, 300]",[0.29814814814814816],[0.32314814814814813],[1],[0],[0],[0.869753099999798],[1],['target_find'],38.03163040000072,39.045079200000146,,,,,,,,,,,,,,,,,,,,,,,,,,,,,,,067461,001,2023-11-06_13h32.04.059,Selektive Wahrnehmung,2023.2.3,60.002508105054844,2023-11-06 13h32.51.420987 +0100,
person1,0,3,3,4,,,,,39.161053300000276,,,,,,,,,,39.045603100000335,39.161053300000276,41.1609468000006,42.0943427000002,3.0493412000005264,43.23116240000036,"[300, 0]",[0.25462962962962965],[0.06574074074074074],[1],[0],[0],[1.1360029999996186],[1],['target_find'],43.232164800000646,44.24687600000016,,,,,,,,,,,,,,,,,,,,,,,,,,,,,,,067461,001,2023-11-06_13h32.04.059,Selektive Wahrnehmung,2023.2.3,60.002508105054844,2023-11-06 13h32.51.420987 +0100,
gruppe2,0,4,4,7,,,,,44.33042090000072,,,,,,,,,,44.24782640000012,44.33042090000072,46.34522500000003,47.29407050000009,3.047261200000321,48.429077300000245,"[300, -300]",[0.3861111111111111],[-0.3],[1],[0],[0],[1.1344452999992427],[1],['target_find'],48.429610400000456,49.44447490000039,,,,,,,,,,,,,,,,,,,,,,,,,,,,,,,067461,001,2023-11-06_13h32.04.059,Selektive Wahrnehmung,2023.2.3,60.002508105054844,2023-11-06 13h32.51.420987 +0100,
zug1,0,5,5,15,,,,,49.51072470000054,,,,,,,,,,49.44475240000065,49.51072470000054,51.51052840000011,52.460590100000445,3.01641010000003,53.446766600000046,"[-300, -300]",[-0.2351851851851852],[-0.30185185185185187],[1],[0],[0],[0.9850891999994928],[1],['target_find'],53.447912700000415,54.46168510000007,,,,,,,,,,,,,,,,,,,,,,,,,,,,,,,067461,001,2023-11-06_13h32.04.059,Selektive Wahrnehmung,2023.2.3,60.002508105054844,2023-11-06 13h32.51.420987 +0100,
gesicht2,0,6,6,9,,,,,54.49690460000056,,,,,,,,,,54.46219780000047,54.49690460000056,56.51155490000019,57.49329089999992,2.9991171000001486,58.21365700000024,"[300, 300]",[0.25277777777777777],[0.2712962962962963],[1],[0],[0],[0.7523167999997895],[1],['target_find'],58.21419260000039,59.22704840000006,,,,,,,,,,,,,,,,,,,,,,,,,,,,,,,067461,001,2023-11-06_13h32.04.059,Selektive Wahrnehmung,2023.2.3,60.002508105054844,2023-11-06 13h32.51.420987 +0100,
spinne1,0,7,7,0,,,,,59.30970840000009,,,,,,,,,,59.22728600000028,59.30970840000009,61.310008800000105,62.24328980000064,3.016484799999489,63.178919300000416,"[300, 300]",[0.25555555555555554],[0.22314814814814815],[1],[0],[0],[0.9347184999996898],[1],['target_find'],63.179700000000594,64.19528780000019,,,,,,,,,,,,,,,,,,,,,,,,,,,,,,,067461,001,2023-11-06_13h32.04.059,Selektive Wahrnehmung,2023.2.3,60.002508105054844,2023-11-06 13h32.51.420987 +0100,
schlange2,0,8,8,3,,,,,64.24637630000052,,,,,,,,,,64.19589710000037,64.24637630000052,66.26005020000048,67.20999920000031,3.014794100000472,67.86296910000056,"[300, 0]",[0.21296296296296297],[0.021296296296296296],[1],[0],[0],[0.6524691000004168],[1],['target_find'],67.8635004000007,68.87758830000075,,,,,,,,,,,,,,,,,,,,,,,,,,,,,,,067461,001,2023-11-06_13h32.04.059,Selektive Wahrnehmung,2023.2.3,60.002508105054844,2023-11-06 13h32.51.420987 +0100,
auto1,0,9,9,12,,,,,68.94309730000077,,,,,,,,,,68.87835780000023,68.94309730000077,70.94304280000051,71.9095797,3.0320590000001175,73.19558039999993,"[300, -300]",[0.32592592592592595],[-0.33055555555555555],[1],[0],[0],[1.2852048999993713],[1],['target_find'],73.19666310000048,74.21159119999993,,,,,,,,,,,,,,,,,,,,,,,,,,,,,,,067461,001,2023-11-06_13h32.04.059,Selektive Wahrnehmung,2023.2.3,60.002508105054844,2023-11-06 13h32.51.420987 +0100,
person2,0,10,10,5,,,,,74.26265600000079,,,,,,,,,,74.21207380000033,74.26265600000079,76.27616570000009,77.24282540000058,3.031520499999715,77.89592130000074,"[0, 300]",[0.04722222222222222],[0.23425925925925925],[1],[0],[0],[0.6520244000003004],[1],['target_find'],77.89710660000037,78.9102937000007,,,,,,,,,,,,,,,,,,,,,,,,,,,,,,,067461,001,2023-11-06_13h32.04.059,Selektive Wahrnehmung,2023.2.3,60.002508105054844,2023-11-06 13h32.51.420987 +0100,
gesicht1,0,11,11,8,,,,,78.95936810000057,,,,,,,,,,78.91088540000055,78.95936810000057,80.95926630000031,81.95917550000013,2.999138700000003,82.62828680000075,"[-300, 0]",[-0.29259259259259257],[0.044444444444444446],[1],[0],[0],[0.7175472000008085],[1],['target_find'],82.62957970000025,83.64409860000069,,,,,,,,,,,,,,,,,,,,,,,,,,,,,,,067461,001,2023-11-06_13h32.04.059,Selektive Wahrnehmung,2023.2.3,60.002508105054844,2023-11-06 13h32.51.420987 +0100,
flugzeug1,0,12,12,13,,,,,83.69536779999999,,,,,,,,,,83.64477280000028,83.69536779999999,85.71010190000015,86.65897040000073,3.0149391999993895,87.81084129999999,"[-300, -300]",[-0.287962962962963],[-0.2537037037037037],[1],[0],[0],[1.1511802000004536],[1],['target_find'],87.81168960000014,88.82655810000051,,,,,,,,,,,,,,,,,,,,,,,,,,,,,,,067461,001,2023-11-06_13h32.04.059,Selektive Wahrnehmung,2023.2.3,60.002508105054844,2023-11-06 13h32.51.420987 +0100,
schiff1,0,13,13,14,,,,,88.8589604000008,,,,,,,,,,88.82706360000066,88.8589604000008,90.85886440000013,91.8589206000006,3.0326389000001654,92.8948233000001,"[300, 0]",[0.3314814814814815],[0.012037037037037037],[1],[0],[0],[1.0348273999998128],[1],['target_find'],92.8958575000006,93.91026970000075,,,,,,,,,,,,,,,,,,,,,,,,,,,,,,,067461,001,2023-11-06_13h32.04.059,Selektive Wahrnehmung,2023.2.3,60.002508105054844,2023-11-06 13h32.51.420987 +0100,
schlange1,0,14,14,2,,,,,93.96176210000067,,,,,,,,,,93.91101620000063,93.96176210000067,95.9766481000006,96.92517960000077,3.0149921000001996,97.79357380000056,"[-300, 0]",[-0.3074074074074074],[-0.04814814814814815],[1],[0],[0],[0.8678190000000541],[1],['target_find'],97.79424280000057,98.80959070000063,,,,,,,,,,,,,,,,,,,,,,,,,,,,,,,067461,001,2023-11-06_13h32.04.059,Selektive Wahrnehmung,2023.2.3,60.002508105054844,2023-11-06 13h32.51.420987 +0100,
gesicht4,0,15,15,11,,,,,98.85856860000058,,,,,,,,,,98.81024830000024,98.85856860000058,100.85839190000024,101.84167210000032,3.0321648999997706,102.60962680000011,"[0, 300]",[0.07222222222222222],[0.1814814814814815],[1],[0],[0],[0.7674087999994299],[1],['target_find'],102.61012200000005,103.62687180000012,,,,,,,,,,,,,,,,,,,,,,,,,,,,,,,067461,001,2023-11-06_13h32.04.059,Selektive Wahrnehmung,2023.2.3,60.002508105054844,2023-11-06 13h32.51.420987 +0100,
schlange1,1,0,16,2,,,,,103.66151160000027,,,,,,,,,,103.62738310000077,103.66151160000027,105.67598290000024,106.6415850000003,3.0147962999999436,107.44453450000037,"[-300, 0]",[-0.26296296296296295],[-0.012037037037037037],[1],[0],[0],[0.8019235000001572],[1],['target_find'],107.44585619999998,108.45944710000003,,,,,,,,,,,,,,,,,,,,,,,,,,,,,,,067461,001,2023-11-06_13h32.04.059,Selektive Wahrnehmung,2023.2.3,60.002508105054844,2023-11-06 13h32.51.420987 +0100,
spinne2,1,1,17,1,,,,,108.65805369999998,,,,,,,,,,108.46036840000033,108.65805369999998,110.65794840000035,111.50800440000057,3.0488098000005266,112.46079160000045,"[0, -300]",[0.06666666666666667],[-0.175],[1],[0],[0],[0.951572999999371],[1],['target_find'],112.46218860000045,113.47589040000003,,,,,,,,,,,,,,,,,,,,,,,,,,,,,,,067461,001,2023-11-06_13h32.04.059,Selektive Wahrnehmung,2023.2.3,60.002508105054844,2023-11-06 13h32.51.420987 +0100,
gesicht3,1,2,18,10,,,,,113.55907680000018,,,,,,,,,,113.47663290000037,113.55907680000018,115.55913740000051,116.54124750000028,3.0654248999999254,117.34399040000062,"[300, -300]",[0.3768518518518518],[-0.2898148148148148],[1],[0],[0],[0.8021711999999752],[1],['target_find'],117.34454690000075,118.35895400000027,,,,,,,,,,,,,,,,,,,,,,,,,,,,,,,067461,001,2023-11-06_13h32.04.059,Selektive Wahrnehmung,2023.2.3,60.002508105054844,2023-11-06 13h32.51.420987 +0100,
person2,1,3,19,5,,,,,118.40748200000053,,,,,,,,,,118.35981590000029,118.40748200000053,120.40772720000041,121.39069090000066,3.0317793000003803,122.09415220000028,"[0, 300]",[0.05740740740740741],[0.22407407407407406],[1],[0],[0],[0.702539799999613],[1],['target_find'],122.09554050000042,123.10822499999995,,,,,,,,,,,,,,,,,,,,,,,,,,,,,,,067461,001,2023-11-06_13h32.04.059,Selektive Wahrnehmung,2023.2.3,60.002508105054844,2023-11-06 13h32.51.420987 +0100,
zug1,1,4,20,15,,,,,123.15719119999994,,,,,,,,,,123.10886730000038,123.15719119999994,125.15861120000045,126.14095020000059,3.0330092000003788,126.99405100000058,"[-300, -300]",[-0.3296296296296296],[-0.32685185185185184],[1],[0],[0],[0.8518976000004841],[1],['target_find'],126.99544500000047,128.0088239000006,,,,,,,,,,,,,,,,,,,,,,,,,,,,,,,067461,001,2023-11-06_13h32.04.059,Selektive Wahrnehmung,2023.2.3,60.002508105054844,2023-11-06 13h32.51.420987 +0100,
schlange2,1,5,21,3,,,,,128.07710490000045,,,,,,,,,,128.00955550000072,128.07710490000045,130.09065230000033,131.0404636000003,3.031708299999991,132.4249703000005,"[300, 300]",[0.3],[0.19166666666666668],[1],[0],[0],[1.3839724999997998],[1],['target_find'],132.42549700000018,133.44109150000077,,,,,,,,,,,,,,,,,,,,,,,,,,,,,,,067461,001,2023-11-06_13h32.04.059,Selektive Wahrnehmung,2023.2.3,60.002508105054844,2023-11-06 13h32.51.420987 +0100,
gruppe2,1,6,22,7,,,,,133.49027530000058,,,,,,,,,,133.44184880000012,133.49027530000058,135.49024400000053,136.4734324000001,3.0324381000000358,137.80882590000056,"[-300, 0]",[-0.30648148148148147],[0.006481481481481481],[1],[0],[0],[1.3347948000000542],[1],['target_find'],137.80938890000016,138.82482450000043,,,,,,,,,,,,,,,,,,,,,,,,,,,,,,,067461,001,2023-11-06_13h32.04.059,Selektive Wahrnehmung,2023.2.3,60.002508105054844,2023-11-06 13h32.51.420987 +0100,
gesicht4,1,7,23,11,,,,,138.8734041000007,,,,,,,,,,138.8257089000008,138.8734041000007,140.87345690000075,141.87346310000066,3.0487358000000313,142.67552310000065,"[300, 300]",[0.2222222222222222],[0.20833333333333334],[1],[0],[0],[0.8012935999995534],[1],['target_find'],142.67650380000032,143.69073630000003,,,,,,,,,,,,,,,,,,,,,,,,,,,,,,,067461,001,2023-11-06_13h32.04.059,Selektive Wahrnehmung,2023.2.3,60.002508105054844,2023-11-06 13h32.51.420987 +0100,
spinne1,1,8,24,0,,,,,143.7405079,,,,,,,,,,143.69156350000048,143.7405079,145.73959920000016,146.72310410000046,3.0324335000004794,147.39203859999998,"[0, 300]",[0.06388888888888888],[0.22314814814814815],[1],[0],[0],[0.6682064999995418],[1],['target_find'],147.39300020000064,148.4072885000005,,,,,,,,,,,,,,,,,,,,,,,,,,,,,,,067461,001,2023-11-06_13h32.04.059,Selektive Wahrnehmung,2023.2.3,60.002508105054844,2023-11-06 13h32.51.420987 +0100,
person1,1,9,25,4,,,,,148.4397837000006,,,,,,,,,,148.40787550000005,148.4397837000006,150.43969180000022,151.4394727000008,2.999118200000339,152.00912560000052,"[-300, 0]",[-0.3453703703703704],[0.06851851851851852],[1],[0],[0],[0.6016880999995919],[1],['target_find'],152.0101009,153.02410540000074,,,,,,,,,,,,,,,,,,,,,,,,,,,,,,,067461,001,2023-11-06_13h32.04.059,Selektive Wahrnehmung,2023.2.3,60.002508105054844,2023-11-06 13h32.51.420987 +0100,
gesicht1,1,10,26,8,,,,,153.05952080000043,,,,,,,,,,153.0245870000008,153.05952080000043,155.07394130000012,156.05599800000073,3.032159899999897,157.97568850000062,"[300, 0]",[0.2564814814814815],[0.04722222222222222],[1],[0],[0],[1.9186122000000978],[1],['target_find'],157.97681030000058,158.99082739999994,,,,,,,,,,,,,,,,,,,,,,,,,,,,,,,067461,001,2023-11-06_13h32.04.059,Selektive Wahrnehmung,2023.2.3,60.002508105054844,2023-11-06 13h32.51.420987 +0100,
gesicht2,1,11,27,9,,,,,159.03914870000062,,,,,,,,,,158.99169390000043,159.03914870000062,161.0392453000004,162.0226371000008,3.0320996999998897,162.87498490000053,"[-300, -300]",[-0.38981481481481484],[-0.3638888888888889],[1],[0],[0],[0.8515153999996983],[1],['target_find'],162.8755142,163.88924430000043,,,,,,,,,,,,,,,,,,,,,,,,,,,,,,,067461,001,2023-11-06_13h32.04.059,Selektive Wahrnehmung,2023.2.3,60.002508105054844,2023-11-06 13h32.51.420987 +0100,
schiff1,1,12,28,14,,,,,163.9221395000004,,,,,,,,,,163.88963930000045,163.9221395000004,165.9224606000007,166.90530650000073,3.0161339999995107,167.85873320000064,"[300, -300]",[0.2712962962962963],[-0.325],[1],[0],[0],[0.9526342999997723],[1],['target_find'],167.85988650000036,168.87312139999995,,,,,,,,,,,,,,,,,,,,,,,,,,,,,,,067461,001,2023-11-06_13h32.04.059,Selektive Wahrnehmung,2023.2.3,60.002508105054844,2023-11-06 13h32.51.420987 +0100,
auto1,1,13,29,12,,,,,168.90572520000023,,,,,,,,,,168.87370680000004,168.90572520000023,170.90543210000033,171.9222322000005,2.9991204999996626,172.57432680000056,"[300, 300]",[0.28703703703703703],[0.3453703703703704],[1],[0],[0],[0.7011556999996174],[1],['target_find'],172.57485130000077,173.58929830000034,,,,,,,,,,,,,,,,,,,,,,,,,,,,,,,067461,001,2023-11-06_13h32.04.059,Selektive Wahrnehmung,2023.2.3,60.002508105054844,2023-11-06 13h32.51.420987 +0100,
gruppe1,1,14,30,6,,,,,173.62197410000044,,,,,,,,,,173.5897556,173.62197410000044,175.62321500000053,176.6051066,3.0158895999993547,177.4239664000006,"[300, -300]",[0.2675925925925926],[-0.18981481481481483],[1],[0],[0],[0.8181934000003821],[1],['target_find'],177.42471660000047,178.4393282000001,,,,,,,,,,,,,,,,,,,,,,,,,,,,,,,067461,001,2023-11-06_13h32.04.059,Selektive Wahrnehmung,2023.2.3,60.002508105054844,2023-11-06 13h32.51.420987 +0100,
flugzeug1,1,15,31,13,,,,,178.48858090000067,,,,,,,,,,178.43992320000052,178.48858090000067,180.48838240000077,181.48849730000074,2.9991823000000295,182.20699240000067,"[300, -300]",[0.29444444444444445],[-0.26296296296296295],[1],[0],[0],[0.7676518999996915],[1],['target_find'],182.20751590000054,183.22386690000076,,,,,,,,,,,,,,,,,,,,,,,,,,,,,,,067461,001,2023-11-06_13h32.04.059,Selektive Wahrnehmung,2023.2.3,60.002508105054844,2023-11-06 13h32.51.420987 +0100,
gesicht4,2,0,32,11,,,,,183.2580168000004,,,,,,,,,,183.22447850000026,183.2580168000004,185.27295240000058,186.2728491000007,2.9991428000002998,187.0247670000008,"[0, -300]",[0.03333333333333333],[-0.2324074074074074],[1],[0],[0],[0.8006192000002557],[1],['target_find'],187.02582620000067,188.03876730000047,,,,,,,,,,,,,,,,,,,,,,,,,,,,,,,067461,001,2023-11-06_13h32.04.059,Selektive Wahrnehmung,2023.2.3,60.002508105054844,2023-11-06 13h32.51.420987 +0100,
gruppe2,2,1,33,7,,,,,188.08817780000027,,,,,,,,,,188.03922740000053,188.08817780000027,190.0880477999999,191.05468640000072,3.0159968999996636,191.84034090000023,"[0, 300]",[0.053703703703703705],[0.2638888888888889],[1],[0],[0],[0.7850143999994543],[1],['target_find'],191.8411853000007,192.85705020000023,,,,,,,,,,,,,,,,,,,,,,,,,,,,,,,067461,001,2023-11-06_13h32.04.059,Selektive Wahrnehmung,2023.2.3,60.002508105054844,2023-11-06 13h32.51.420987 +0100,
spinne1,2,2,34,0,,,,,192.9076003,,,,,,,,,,192.85780539999996,192.9076003,194.9222737,195.8878691,3.030897999999979,197.50707469999998,"[-300, 0]",[-0.30833333333333335],[0.07407407407407407],[1],[0],[0],[1.6184056000001874],[1],['target_find'],197.50814340000034,198.5218358000002,,,,,,,,,,,,,,,,,,,,,,,,,,,,,,,067461,001,2023-11-06_13h32.04.059,Selektive Wahrnehmung,2023.2.3,60.002508105054844,2023-11-06 13h32.51.420987 +0100,
spinne2,2,3,35,1,,,,,198.70420490000015,,,,,,,,,,198.52235130000008,198.70420490000015,200.70430320000014,201.55439370000022,3.0328497000000425,202.39165910000065,"[0, -300]",[-0.025925925925925925],[-0.2175925925925926],[1],[0],[0],[0.8361793000003672],[1],['target_find'],202.39272970000002,203.4055130000006,,,,,,,,,,,,,,,,,,,,,,,,,,,,,,,067461,001,2023-11-06_13h32.04.059,Selektive Wahrnehmung,2023.2.3,60.002508105054844,2023-11-06 13h32.51.420987 +0100,
gruppe1,2,4,36,6,,,,,203.47198060000028,,,,,,,,,,203.40600170000016,203.47198060000028,205.47195350000038,206.47076760000073,3.065534899999875,207.4735696000007,"[0, -300]",[0.05555555555555555],[-0.22962962962962963],[1],[0],[0],[1.0017337999997835],[1],['target_find'],207.47469420000016,208.48813900000005,,,,,,,,,,,,,,,,,,,,,,,,,,,,,,,067461,001,2023-11-06_13h32.04.059,Selektive Wahrnehmung,2023.2.3,60.002508105054844,2023-11-06 13h32.51.420987 +0100,
person1,2,5,37,4,,,,,208.53710030000002,,,,,,,,,,208.48873520000052,208.53710030000002,210.53704650000054,211.52041000000008,3.0325713000001997,212.3382062999999,"[300, 0]",[0.3277777777777778],[-0.03796296296296296],[1],[0],[0],[0.8169896999997945],[1],['target_find'],212.33872070000052,213.35402820000036,,,,,,,,,,,,,,,,,,,,,,,,,,,,,,,067461,001,2023-11-06_13h32.04.059,Selektive Wahrnehmung,2023.2.3,60.002508105054844,2023-11-06 13h32.51.420987 +0100,
zug1,2,6,38,15,,,,,213.38729850000072,,,,,,,,,,213.35432500000024,213.38729850000072,215.38838190000024,216.38763420000032,3.03370299999915,216.92422260000058,"[-300, 0]",[-0.23148148148148148],[0.07685185185185185],[1],[0],[0],[0.5356363999999303],[1],['target_find'],216.92549390000022,217.9389998000006,,,,,,,,,,,,,,,,,,,,,,,,,,,,,,,067461,001,2023-11-06_13h32.04.059,Selektive Wahrnehmung,2023.2.3,60.002508105054844,2023-11-06 13h32.51.420987 +0100,
gesicht1,2,7,39,8,,,,,217.97313450000001,,,,,,,,,,217.93948450000062,217.97313450000001,219.98795860000064,220.95338600000014,3.014462000000094,221.75484300000062,"[-300, 300]",[-0.2962962962962963],[0.2916666666666667],[1],[0],[0],[0.8009366000005684],[1],['target_find'],221.7553065000002,222.7707848,,,,,,,,,,,,,,,,,,,,,,,,,,,,,,,067461,001,2023-11-06_13h32.04.059,Selektive Wahrnehmung,2023.2.3,60.002508105054844,2023-11-06 13h32.51.420987 +0100,
schlange2,2,8,40,3,,,,,222.81996350000009,,,,,,,,,,222.77120900000045,222.81996350000009,224.81995110000025,225.8031176000004,3.032413999999335,226.5212300000003,"[300, -300]",[0.3351851851851852],[-0.23148148148148148],[1],[0],[0],[0.7176017000001593],[1],['target_find'],226.5217545000005,227.53852820000066,,,,,,,,,,,,,,,,,,,,,,,,,,,,,,,067461,001,2023-11-06_13h32.04.059,Selektive Wahrnehmung,2023.2.3,60.002508105054844,2023-11-06 13h32.51.420987 +0100,
flugzeug1,2,9,41,13,,,,,227.57302830000026,,,,,,,,,,227.53902800000014,227.57302830000026,229.5876259000006,230.56981970000015,3.0313790999998673,231.40649170000052,"[300, 300]",[0.2796296296296296],[0.22314814814814815],[1],[0],[0],[0.8362051000003703],[1],['target_find'],231.40700650000053,232.42149150000023,,,,,,,,,,,,,,,,,,,,,,,,,,,,,,,067461,001,2023-11-06_13h32.04.059,Selektive Wahrnehmung,2023.2.3,60.002508105054844,2023-11-06 13h32.51.420987 +0100,
gesicht2,2,10,42,9,,,,,232.45609310000054,,,,,,,,,,232.4220094000002,232.45609310000054,234.47056770000017,235.45286100000067,3.0314512999993894,236.82171390000076,"[-300, -300]",[-0.3453703703703704],[-0.32685185185185184],[1],[0],[0],[1.3680005999995046],[1],['target_find'],236.82276810000076,237.83689070000037,,,,,,,,,,,,,,,,,,,,,,,,,,,,,,,067461,001,2023-11-06_13h32.04.059,Selektive Wahrnehmung,2023.2.3,60.002508105054844,2023-11-06 13h32.51.420987 +0100,
gesicht3,2,11,43,10,,,,,237.86942180000005,,,,,,,,,,237.83748240000023,237.86942180000005,239.86906309999995,240.86929620000046,3.032481000000189,241.73681230000057,"[0, -300]",[0.030555555555555555],[-0.21944444444444444],[1],[0],[0],[0.8670441000003848],[1],['target_find'],241.7373234000006,242.7536286000004,,,,,,,,,,,,,,,,,,,,,,,,,,,,,,,067461,001,2023-11-06_13h32.04.059,Selektive Wahrnehmung,2023.2.3,60.002508105054844,2023-11-06 13h32.51.420987 +0100,
auto1,2,12,44,12,,,,,242.8023587000007,,,,,,,,,,242.75442550000025,242.8023587000007,244.8023578000002,245.7857825000001,3.0325675000003685,246.88832249999996,"[-300, -300]",[-0.17777777777777778],[-0.1925925925925926],[1],[0],[0],[1.1013208000003942],[1],['target_find'],246.88945650000005,247.90360230000078,,,,,,,,,,,,,,,,,,,,,,,,,,,,,,,067461,001,2023-11-06_13h32.04.059,Selektive Wahrnehmung,2023.2.3,60.002508105054844,2023-11-06 13h32.51.420987 +0100,
person2,2,13,45,5,,,,,247.93880630000058,,,,,,,,,,247.9043395000008,247.93880630000058,249.9532607000001,250.9186019000008,3.015046700000312,251.8887317000008,"[-300, 300]",[-0.26851851851851855],[0.16666666666666666],[1],[0],[0],[0.9692457999999533],[1],['target_find'],251.89013419999992,252.90320760000031,,,,,,,,,,,,,,,,,,,,,,,,,,,,,,,067461,001,2023-11-06_13h32.04.059,Selektive Wahrnehmung,2023.2.3,60.002508105054844,2023-11-06 13h32.51.420987 +0100,
schlange1,2,14,46,2,,,,,252.95203690000017,,,,,,,,,,252.90395750000062,252.95203690000017,254.9519852000003,255.95189120000032,3.048765600000479,257.02154020000035,"[-300, 300]",[-0.25833333333333336],[0.25092592592592594],[1],[0],[0],[1.0687969000000521],[1],['target_find'],257.0227392000006,258.0376490000008,,,,,,,,,,,,,,,,,,,,,,,,,,,,,,,067461,001,2023-11-06_13h32.04.059,Selektive Wahrnehmung,2023.2.3,60.002508105054844,2023-11-06 13h32.51.420987 +0100,
schiff1,2,15,47,14,,,,,258.07130140000027,,,,,,,,,,258.0384146000006,258.07130140000027,260.0849117000007,261.06851110000025,3.0309325999996872,261.98919710000064,"[300, 0]",[0.3296296296296296],[-0.01574074074074074],[1],[0],[0],[0.9198702000003323],[1],['target_find'],261.99024240000017,263.0028191000001,,,,,,,,,,,,,,,,,,,,,,,,,,,,,,,067461,001,2023-11-06_13h32.04.059,Selektive Wahrnehmung,2023.2.3,60.002508105054844,2023-11-06 13h32.51.420987 +0100,
gesicht4,3,0,48,11,,,,,263.06958209999993,,,,,,,,,,263.0035878000008,263.06958209999993,265.0681850000001,266.0529212000001,3.050389600000017,266.8381408000005,"[-300, -300]",[-0.1962962962962963],[-0.18703703703703703],[1],[0],[0],[0.7842060000002675],[1],['target_find'],266.83911030000036,267.8515832000003,,,,,,,,,,,,,,,,,,,,,,,,,,,,,,,067461,001,2023-11-06_13h32.04.059,Selektive Wahrnehmung,2023.2.3,60.002508105054844,2023-11-06 13h32.51.420987 +0100,
schlange2,3,1,49,3,,,,,267.88797930000055,,,,,,,,,,267.8518173000002,267.88797930000055,269.9025491000002,270.86759789999996,3.0160863000000973,272.2028493000007,"[-300, 300]",[-0.4166666666666667],[0.32592592592592595],[1],[0],[0],[1.3346564000003127],[],[],272.20337010000003,273.2183588000007,,,,,,,,,,,,,,,,,,,,,,,,,,,,,,,067461,001,2023-11-06_13h32.04.059,Selektive Wahrnehmung,2023.2.3,60.002508105054844,2023-11-06 13h32.51.420987 +0100,
gruppe1,3,2,50,6,,,,,273.2510662000004,,,,,,,,,,273.2186352000008,273.2510662000004,275.25078049999956,276.2511306000006,3.0328682999988814,277.2040076000003,"[-300, 300]",[-0.28055555555555556],[0.2861111111111111],[1],[0],[0],[0.9520572000001266],[1],['target_find'],277.2051626000002,278.21880839999994,,,,,,,,,,,,,,,,,,,,,,,,,,,,,,,067461,001,2023-11-06_13h32.04.059,Selektive Wahrnehmung,2023.2.3,60.002508105054844,2023-11-06 13h32.51.420987 +0100,
person1,3,3,51,4,,,,,278.26762300000064,,,,,,,,,,278.2195608000011,278.26762300000064,280.2675645999998,281.2675143999995,3.0487732000001415,281.83619420000014,"[300, 0]",[0.22685185185185186],[-0.022222222222222223],[1],[0],[0],[0.5679581999993388],[1],['target_find'],281.83716189999996,282.85161340000104,,,,,,,,,,,,,,,,,,,,,,,,,,,,,,,067461,001,2023-11-06_13h32.04.059,Selektive Wahrnehmung,2023.2.3,60.002508105054844,2023-11-06 13h32.51.420987 +0100,
flugzeug1,3,4,52,13,,,,,282.9006775000007,,,,,,,,,,282.8522315,282.9006775000007,284.9018724000007,285.8841123000011,3.0325823000002856,287.8186926999997,"[300, 0]",[0.2212962962962963],[0.040740740740740744],[1],[0],[0],[1.9339944000003015],[1],['target_find'],287.8192147,288.8349036999998,,,,,,,,,,,,,,,,,,,,,,,,,,,,,,,067461,001,2023-11-06_13h32.04.059,Selektive Wahrnehmung,2023.2.3,60.002508105054844,2023-11-06 13h32.51.420987 +0100,
gesicht3,3,5,53,10,,,,,288.86703370000123,,,,,,,,,,288.83553909999955,288.86703370000123,290.86707000000115,291.86700420000034,3.0321975000006205,292.85467400000107,"[-300, 0]",[-0.2740740740740741],[0.020370370370370372],[1],[0],[0],[0.9867826999998215],[1],['target_find'],292.85572109999976,293.86809300000004,,,,,,,,,,,,,,,,,,,,,,,,,,,,,,,067461,001,2023-11-06_13h32.04.059,Selektive Wahrnehmung,2023.2.3,60.002508105054844,2023-11-06 13h32.51.420987 +0100,
spinne1,3,6,54,0,,,,,293.90025420000075,,,,,,,,,,293.86885950000124,293.90025420000075,295.90023569999994,296.9001892999995,3.03217290000066,297.8713963,"[-300, 300]",[-0.2833333333333333],[0.25555555555555554],[1],[0],[0],[0.9700687000004109],[1],['target_find'],297.87319470000057,298.8841746999997,,,,,,,,,,,,,,,,,,,,,,,,,,,,,,,067461,001,2023-11-06_13h32.04.059,Selektive Wahrnehmung,2023.2.3,60.002508105054844,2023-11-06 13h32.51.420987 +0100,
schiff1,3,7,55,14,,,,,298.91663080000126,,,,,,,,,,298.8846710000007,298.91663080000126,300.9176322000012,301.90027120000104,3.016378199999963,302.9860400000007,"[-300, -300]",[-0.20277777777777778],[-0.2],[1],[0],[0],[1.0847094000000652],[1],['target_find'],302.98702739999953,304.0007835000006,,,,,,,,,,,,,,,,,,,,,,,,,,,,,,,067461,001,2023-11-06_13h32.04.059,Selektive Wahrnehmung,2023.2.3,60.002508105054844,2023-11-06 13h32.51.420987 +0100,
auto1,3,8,56,12,,,,,304.03332169999976,,,,,,,,,,304.0013786999998,304.03332169999976,306.0329329999995,307.01642040000024,3.0159211000009236,307.73456820000047,"[300, 0]",[0.2712962962962963],[0.025925925925925925],[1],[0],[0],[0.7172588999983418],[1],['target_find'],307.735272500001,308.75084979999974,,,,,,,,,,,,,,,,,,,,,,,,,,,,,,,067461,001,2023-11-06_13h32.04.059,Selektive Wahrnehmung,2023.2.3,60.002508105054844,2023-11-06 13h32.51.420987 +0100,
person2,3,9,57,5,,,,,308.8028975999996,,,,,,,,,,308.7514934000001,308.8028975999996,310.8173477999999,311.7658720999998,3.0150653000000602,313.20175310000104,"[300, -300]",[0.24259259259259258],[-0.1935185185185185],[1],[0],[0],[1.4352211999994324],[1],['target_find'],313.2025703999998,314.21696840000095,,,,,,,,,,,,,,,,,,,,,,,,,,,,,,,067461,001,2023-11-06_13h32.04.059,Selektive Wahrnehmung,2023.2.3,60.002508105054844,2023-11-06 13h32.51.420987 +0100,
zug1,3,10,58,15,,,,,314.2495050000007,,,,,,,,,,314.21747009999945,314.2495050000007,316.24943880000046,317.2490089000012,2.999047100000098,318.1028388000004,"[300, 0]",[0.24166666666666667],[-0.005555555555555556],[1],[0],[0],[0.8860365000000456],[1],['target_find'],318.1033524000004,319.1179691999996,,,,,,,,,,,,,,,,,,,,,,,,,,,,,,,067461,001,2023-11-06_13h32.04.059,Selektive Wahrnehmung,2023.2.3,60.002508105054844,2023-11-06 13h32.51.420987 +0100,
spinne2,3,11,59,1,,,,,319.3492030999996,,,,,,,,,,319.1185727000002,319.3492030999996,321.3504108999996,322.1671548000004,3.04927730000054,323.20256620000055,"[-300, 300]",[-0.1814814814814815],[0.2462962962962963],[1],[0],[0],[1.0344724000005954],[1],['target_find'],323.20394419999957,324.2165353999999,,,,,,,,,,,,,,,,,,,,,,,,,,,,,,,067461,001,2023-11-06_13h32.04.059,Selektive Wahrnehmung,2023.2.3,60.002508105054844,2023-11-06 13h32.51.420987 +0100,
gruppe2,3,12,60,7,,,,,324.2836737000007,,,,,,,,,,324.21701699999994,324.2836737000007,326.2825163999996,327.28229139999985,3.0658339000001433,328.1193099000002,"[-300, 300]",[-0.29444444444444445],[0.22592592592592592],[1],[0],[0],[0.836521499999435],[1],['target_find'],328.1198297000001,329.1341899000008,,,,,,,,,,,,,,,,,,,,,,,,,,,,,,,067461,001,2023-11-06_13h32.04.059,Selektive Wahrnehmung,2023.2.3,60.002508105054844,2023-11-06 13h32.51.420987 +0100,
gesicht2,3,13,61,9,,,,,329.16838069999994,,,,,,,,,,329.13466679999965,329.16838069999994,331.1821951000011,332.18200660000093,2.999234400000205,332.9019835000008,"[300, 0]",[0.18333333333333332],[0.007407407407407408],[1],[0],[0],[0.7674110000007204],[1],['target_find'],332.90307590000066,333.91617830000087,,,,,,,,,,,,,,,,,,,,,,,,,,,,,,,067461,001,2023-11-06_13h32.04.059,Selektive Wahrnehmung,2023.2.3,60.002508105054844,2023-11-06 13h32.51.420987 +0100,
schlange1,3,14,62,2,,,,,333.94849990000057,,,,,,,,,,333.9167760999999,333.94849990000057,335.94850810000116,336.9315137000003,3.015400199999931,338.2696033000002,"[300, 0]",[0.3212962962962963],[0.008333333333333333],[1],[0],[0],[1.3371824999994715],[1],['target_find'],338.27094560000023,339.2829307000002,,,,,,,,,,,,,,,,,,,,,,,,,,,,,,,067461,001,2023-11-06_13h32.04.059,Selektive Wahrnehmung,2023.2.3,60.002508105054844,2023-11-06 13h32.51.420987 +0100,
gesicht1,3,15,63,8,,,,,339.33485910000036,,,,,,,,,,339.2836814000011,339.33485910000036,341.3493566999996,342.31494099999964,3.0320754000003944,343.44991070000015,"[0, -300]",[-0.04537037037037037],[-0.1814814814814815],[1],[0],[0],[1.1344394999996439],[1],['target_find'],343.45043069999974,344.4657162000012,,,,,,,,,,,,,,,,,,,,,,,,,,,,,,,067461,001,2023-11-06_13h32.04.059,Selektive Wahrnehmung,2023.2.3,60.002508105054844,2023-11-06 13h32.51.420987 +0100,
person1,4,0,64,4,,,,,344.49816270000065,,,,,,,,,,344.46629980000125,344.49816270000065,346.49813319999976,347.49811970000064,2.9990345999995043,348.5008934999996,"[300, 300]",[0.2759259259259259],[0.20185185185185187],[1],[0],[0],[1.0348776999999245],[1],['target_find'],348.5022773999999,349.51681240000016,,,,,,,,,,,,,,,,,,,,,,,,,,,,,,,067461,001,2023-11-06_13h32.04.059,Selektive Wahrnehmung,2023.2.3,60.002508105054844,2023-11-06 13h32.51.420987 +0100,
gruppe2,4,1,65,7,,,,,349.5492901000007,,,,,,,,,,349.51739279999947,349.5492901000007,351.5659579000012,352.5311711000004,3.0144400999997742,353.4340409999995,"[300, 0]",[0.31666666666666665],[-0.07222222222222222],[1],[0],[0],[0.9019692999991094],[1],['target_find'],353.43516050000017,354.4489777000008,,,,,,,,,,,,,,,,,,,,,,,,,,,,,,,067461,001,2023-11-06_13h32.04.059,Selektive Wahrnehmung,2023.2.3,60.002508105054844,2023-11-06 13h32.51.420987 +0100,
spinne2,4,2,66,1,,,,,354.64762919999976,,,,,,,,,,354.44971970000097,354.64762919999976,356.64769890000116,357.49742080000124,3.04850930000066,358.46767610000006,"[0, 300]",[0.05185185185185185],[0.21574074074074073],[1],[0],[0],[0.9693157999990945],[1],['target_find'],358.4690539000012,359.4816892000008,,,,,,,,,,,,,,,,,,,,,,,,,,,,,,,067461,001,2023-11-06_13h32.04.059,Selektive Wahrnehmung,2023.2.3,60.002508105054844,2023-11-06 13h32.51.420987 +0100,
gesicht1,4,3,67,8,,,,,359.5488567000002,,,,,,,,,,359.48218929999985,359.5488567000002,361.548557000001,362.54873710000084,3.067275499999596,363.2161592000002,"[0, 300]",[0.05],[0.20462962962962963],[1],[0],[0],[0.6667040000011184],[1],['target_find'],363.21671660000084,364.2318631999997,,,,,,,,,,,,,,,,,,,,,,,,,,,,,,,067461,001,2023-11-06_13h32.04.059,Selektive Wahrnehmung,2023.2.3,60.002508105054844,2023-11-06 13h32.51.420987 +0100,
gesicht2,4,4,68,9,,,,,364.29866669999956,,,,,,,,,,364.23260440000104,364.29866669999956,366.315151400001,367.2471448999995,3.0153296000007686,368.3832766000005,"[0, -300]",[0.017592592592592594],[-0.2064814814814815],[1],[0],[0],[1.1353180999994947],[1],['target_find'],368.3843970000007,369.39821460000076,,,,,,,,,,,,,,,,,,,,,,,,,,,,,,,067461,001,2023-11-06_13h32.04.059,Selektive Wahrnehmung,2023.2.3,60.002508105054844,2023-11-06 13h32.51.420987 +0100,
gesicht4,4,5,69,11,,,,,369.44701389999955,,,,,,,,,,369.3988651000009,369.44701389999955,371.44671050000125,372.43046960000083,3.032525299999179,373.1337646000002,"[0, 300]",[0.09537037037037037],[0.3388888888888889],[1],[0],[0],[0.702080199998818],[1],['target_find'],373.1351894999998,374.14710319999995,,,,,,,,,,,,,,,,,,,,,,,,,,,,,,,067461,001,2023-11-06_13h32.04.059,Selektive Wahrnehmung,2023.2.3,60.002508105054844,2023-11-06 13h32.51.420987 +0100,
gruppe1,4,6,70,6,,,,,374.1833412999995,,,,,,,,,,374.1473612,374.1833412999995,376.19696639999984,377.1968117000006,3.049798899999587,378.3158375000012,"[300, -300]",[0.3212962962962963],[-0.18333333333333332],[1],[0],[0],[1.1182764999994106],[1],['target_find'],378.31679619999977,379.3312463000011,,,,,,,,,,,,,,,,,,,,,,,,,,,,,,,067461,001,2023-11-06_13h32.04.059,Selektive Wahrnehmung,2023.2.3,60.002508105054844,2023-11-06 13h32.51.420987 +0100,
zug1,4,7,71,15,,,,,379.37994979999985,,,,,,,,,,379.33200020000095,379.37994979999985,381.3799312000001,382.36304310000105,3.032049100000222,383.28372039999977,"[300, 0]",[0.21944444444444444],[0.03518518518518519],[1],[0],[0],[0.9194732000014483],[1],['target_find'],383.28510449999976,384.29885060000106,,,,,,,,,,,,,,,,,,,,,,,,,,,,,,,067461,001,2023-11-06_13h32.04.059,Selektive Wahrnehmung,2023.2.3,60.002508105054844,2023-11-06 13h32.51.420987 +0100,
schlange1,4,8,72,2,,,,,384.3496814,,,,,,,,,,384.29962330000035,384.3496814,386.3636359000002,387.36438139999973,3.065606799998932,388.36582139999973,"[-300, -300]",[-0.24166666666666667],[-0.2351851851851852],[1],[0],[0],[1.0005779000002804],[1],['target_find'],388.36681899999985,389.38060920000044,,,,,,,,,,,,,,,,,,,,,,,,,,,,,,,067461,001,2023-11-06_13h32.04.059,Selektive Wahrnehmung,2023.2.3,60.002508105054844,2023-11-06 13h32.51.420987 +0100,
schiff1,4,9,73,14,,,,,389.41583960000116,,,,,,,,,,389.38111560000016,389.41583960000116,391.4308776000007,392.39586560000043,3.0153146000011475,393.51565709999977,"[-300, 300]",[-0.37777777777777777],[0.2657407407407407],[1],[0],[0],[1.1189240999992762],[1],['target_find'],393.5169850000011,394.5302431000009,,,,,,,,,,,,,,,,,,,,,,,,,,,,,,,067461,001,2023-11-06_13h32.04.059,Selektive Wahrnehmung,2023.2.3,60.002508105054844,2023-11-06 13h32.51.420987 +0100,
person2,4,10,74,5,,,,,394.57927440000003,,,,,,,,,,394.53083530000094,394.57927440000003,396.57932619999974,397.56273129999954,3.032570900000792,398.4160832000007,"[300, 0]",[0.38981481481481484],[0.013888888888888888],[1],[0],[0],[0.8524192000004405],[1],['target_find'],398.41745399999945,399.4313439000007,,,,,,,,,,,,,,,,,,,,,,,,,,,,,,,067461,001,2023-11-06_13h32.04.059,Selektive Wahrnehmung,2023.2.3,60.002508105054844,2023-11-06 13h32.51.420987 +0100,
schlange2,4,11,75,3,,,,,399.4654868000007,,,,,,,,,,399.43182760000036,399.4654868000007,401.48031700000047,402.46249550000084,3.0312281000005896,404.29909320000024,"[300, 300]",[0.2212962962962963],[0.17314814814814813],[1],[0],[0],[1.8356733000000531],[1],['target_find'],404.30036700000073,405.3130467000001,,,,,,,,,,,,,,,,,,,,,,,,,,,,,,,067461,001,2023-11-06_13h32.04.059,Selektive Wahrnehmung,2023.2.3,60.002508105054844,2023-11-06 13h32.51.420987 +0100,
auto1,4,12,76,12,,,,,405.3623501000011,,,,,,,,,,405.31355429999985,405.3623501000011,407.3622266000011,408.3287021999995,3.0157545000001846,408.98161470000105,"[300, 300]",[0.25555555555555554],[0.21944444444444444],[1],[0],[0],[0.6519668999990245],[1],['target_find'],408.98302930000045,409.9963424999996,,,,,,,,,,,,,,,,,,,,,,,,,,,,,,,067461,001,2023-11-06_13h32.04.059,Selektive Wahrnehmung,2023.2.3,60.002508105054844,2023-11-06 13h32.51.420987 +0100,
flugzeug1,4,13,77,13,,,,,410.03172350000114,,,,,,,,,,409.99683819999973,410.03172350000114,412.0464251000003,413.02832750000107,3.0320484999992914,413.8819116000004,"[-300, 0]",[-0.24537037037037038],[0.06759259259259259],[1],[0],[0],[0.8526875000006839],[1],['target_find'],413.88318920000074,414.8963451000009,,,,,,,,,,,,,,,,,,,,,,,,,,,,,,,067461,001,2023-11-06_13h32.04.059,Selektive Wahrnehmung,2023.2.3,60.002508105054844,2023-11-06 13h32.51.420987 +0100,
spinne1,4,14,78,0,,,,,414.9452970000011,,,,,,,,,,414.89709870000024,414.9452970000011,416.94516550000026,417.92844890000106,3.032389300000432,420.06386529999963,"[300, 300]",[0.375],[0.26481481481481484],[1],[0],[0],[2.1344119000004866],[1],['target_find'],420.0648288000002,421.07948510000006,,,,,,,,,,,,,,,,,,,,,,,,,,,,,,,067461,001,2023-11-06_13h32.04.059,Selektive Wahrnehmung,2023.2.3,60.002508105054844,2023-11-06 13h32.51.420987 +0100,
gesicht3,4,15,79,10,,,,,421.1281976,,,,,,,,,,421.0802297,421.1281976,423.1281798000009,424.1281379000002,3.04872609999984,424.8473700000004,"[300, 0]",[0.33796296296296297],[-0.037037037037037035],[1],[0],[0],[0.7184479000006831],[1],['target_find'],424.8484572999996,425.86341280000033,,,,,,,,,,,,,,,,,,,,,,,,,,,,,,,067461,001,2023-11-06_13h32.04.059,Selektive Wahrnehmung,2023.2.3,60.002508105054844,2023-11-06 13h32.51.420987 +0100,
,,,,,0,0,0,0,433.3974046000012,,,,,,,,,,,,,,,,,,,,,,,,,,,425.8780006999996,430.4310840999997,430.43112030000066,433.2970362999995,433.29810160000034,453.1015914999998,4.0,2.0,spinne1,,,,,,,,,,,,,,,,,,,,,,067461,001,2023-11-06_13h32.04.059,Selektive Wahrnehmung,2023.2.3,60.002508105054844,2023-11-06 13h32.51.420987 +0100,
,,,,,1,0,1,0,453.14622529999997,,,,,,,,,,,,,,,,,,,,,,,,,,,,,,,453.10196260000066,460.93543630000113,4.0,2.0,gesicht4,,,,,,,,,,,,,,,,,,,,,,067461,001,2023-11-06_13h32.04.059,Selektive Wahrnehmung,2023.2.3,60.002508105054844,2023-11-06 13h32.51.420987 +0100,
,,,,,2,0,2,0,460.9962024000006,,,,,,,,,,,,,,,,,,,,,,,,,,,,,,,460.9357893999995,472.9337899000011,1.0,5.0,zug1,,,,,,,,,,,,,,,,,,,,,,067461,001,2023-11-06_13h32.04.059,Selektive Wahrnehmung,2023.2.3,60.002508105054844,2023-11-06 13h32.51.420987 +0100,
,,,,,3,0,3,0,472.9787913000009,,,,,,,,,,,,,,,,,,,,,,,,,,,,,,,472.9341168000001,487.01746540000113,4.0,1.0,gruppe2,,,,,,,,,,,,,,,,,,,,,,067461,001,2023-11-06_13h32.04.059,Selektive Wahrnehmung,2023.2.3,60.002508105054844,2023-11-06 13h32.51.420987 +0100,
,,,,,4,0,4,0,487.07841839999946,,,,,,,,,,,,,,,,,,,,,,,,,,,,,,,487.0177881999998,501.98324070000035,2.0,2.0,person2,,,,,,,,,,,,,,,,,,,,,,067461,001,2023-11-06_13h32.04.059,Selektive Wahrnehmung,2023.2.3,60.002508105054844,2023-11-06 13h32.51.420987 +0100,
,,,,,,,,,,,,,,,,,,,,,,,,,,,,,,,,,,,,,,,,,,,,,502.0549648999995,511.19446850000077, 21 ,1.0,511.1944916000002,524.2818011000008,2.0,1.0,524.2818197000006,529.0092811000004,529.0093094000013,560.6361406000005,2.0,4.0,2.0,2.0,560.6361729999999,568.7630923999996,3.0,2.0,568.763110500001,,,,,,,,
