Target,trials.thisRepN,trials.thisTrialN,trials.thisN,trials.thisIndex,trials_2.thisRepN,trials_2.thisTrialN,trials_2.thisN,trials_2.thisIndex,thisRow.t,notes,Data_transparency.started,key_resp_data_transp.started,Data_transparency.stopped,key_resp_data_transp.keys,key_resp_data_transp.rt,key_resp_data_transp.duration,instructions.started,instructions.stopped,trial.started,target_show.started,target_show.stopped,target_find.started,mouse.started,trial.stopped,target_position_x_y,mouse.x,mouse.y,mouse.leftButton,mouse.midButton,mouse.rightButton,mouse.time,mouse.corr,mouse.clicked_name,feedback.started,feedback.stopped,instructions_survey.started,instructions_survey.stopped,instructions_ratings.started,instructions_ratings.stopped,survey_ratings.started,survey_ratings.stopped,furcht.response,liebenswert.response,rated_image,survey_gen.started,survey_gen.stopped,age.text,gender.response,survey_games.started,survey_games.stopped,pc_frequency.response,reaction_games_frequency.response,instructions_neuro.started,instructions_neuro.stopped,survey_neuro.started,survey_neuro.stopped,neuro_1_rev.response,neuro_2.response,neuro_3.response,neuro_4_rev.response,survey_fear.started,survey_fear.stopped,specific_fear_spider.response,specific_fear_snake.response,thanks.started,thanks.stopped,participant,session,date,expName,psychopyVersion,frameRate,expStart,
,,,,,,,,,,,0.021369500000218977,0.03786070000023756,32.81985010000062,z,32.776081899999554,None,,,,,,,,,,,,,,,,,,,,,,,,,,,,,,,,,,,,,,,,,,,,,,,,,,,087797,001,2023-11-13_13h40.54.370,Selektive Wahrnehmung,2023.2.3,59.96390173158958,2023-11-13 14h01.45.844709 +0100,
,,,,,,,,,,,,,,,,,32.819911200000206,270.9210813000009,,,,,,,,,,,,,,,,,,,,,,,,,,,,,,,,,,,,,,,,,,,,,,,,,087797,001,2023-11-13_13h40.54.370,Selektive Wahrnehmung,2023.2.3,59.96390173158958,2023-11-13 14h01.45.844709 +0100,
spinne1,0,0,0,0,,,,,270.97666520000166,,,,,,,,,,270.9331888000015,270.97666520000166,272.9914006000017,273.9414693000017,3.020458699998926,274.99433300000055,"[0, -300]",[0.027777777777777776],[-0.21481481481481482],[1],[0],[0],[1.051652300000569],[1],['target_find'],274.9974725000011,276.0065439000009,,,,,,,,,,,,,,,,,,,,,,,,,,,,,,,,087797,001,2023-11-13_13h40.54.370,Selektive Wahrnehmung,2023.2.3,59.96390173158958,2023-11-13 14h01.45.844709 +0100,
auto1,0,1,1,12,,,,,276.04019900000094,,,,,,,,,,276.00677580000047,276.04019900000094,278.03976820000025,279.0230508000004,3.0165965000014694,281.09300220000114,"[-300, 0]",[-0.2657407407407407],[-0.02962962962962963],[1],[0],[0],[2.069150199999058],[1],['target_find'],281.0941778000015,282.1082688000006,,,,,,,,,,,,,,,,,,,,,,,,,,,,,,,,087797,001,2023-11-13_13h40.54.370,Selektive Wahrnehmung,2023.2.3,59.96390173158958,2023-11-13 14h01.45.844709 +0100,
gesicht2,0,2,2,9,,,,,282.14298470000176,,,,,,,,,,282.1090511000002,282.14298470000176,284.15639660000124,285.12264160000086,3.0144249000004493,285.9084111000011,"[0, -300]",[0.009259259259259259],[-0.2222222222222222],[1],[0],[0],[0.7851279999995313],[1],['target_find'],285.90922560000035,286.9237968000016,,,,,,,,,,,,,,,,,,,,,,,,,,,,,,,,087797,001,2023-11-13_13h40.54.370,Selektive Wahrnehmung,2023.2.3,59.96390173158958,2023-11-13 14h01.45.844709 +0100,
person2,0,3,3,5,,,,,286.95620400000007,,,,,,,,,,286.9243660000011,286.95620400000007,288.9561085000005,289.95579350000116,2.999077300000863,290.77475910000067,"[0, 300]",[-0.006481481481481481],[0.17222222222222222],[1],[0],[0],[0.8509125000000495],[1],['target_find'],290.775633700001,291.79144870000164,,,,,,,,,,,,,,,,,,,,,,,,,,,,,,,,087797,001,2023-11-13_13h40.54.370,Selektive Wahrnehmung,2023.2.3,59.96390173158958,2023-11-13 14h01.45.844709 +0100,
gesicht4,0,4,4,11,,,,,291.8259857000012,,,,,,,,,,291.79198890000043,291.8259857000012,293.8392246000003,294.8225084000005,3.031133399999817,295.4919727000015,"[300, 0]",[0.35],[-0.08055555555555556],[1],[0],[0],[0.668634399999064],[1],['target_find'],295.49316250000084,296.50664600000164,,,,,,,,,,,,,,,,,,,,,,,,,,,,,,,,087797,001,2023-11-13_13h40.54.370,Selektive Wahrnehmung,2023.2.3,59.96390173158958,2023-11-13 14h01.45.844709 +0100,
gesicht1,0,5,5,8,,,,,296.62227520000124,,,,,,,,,,296.5072598000006,296.62227520000124,298.62233730000116,299.55561600000146,2.999026999999842,300.24200050000036,"[0, 300]",[0.022222222222222223],[0.287962962962963],[1],[0],[0],[0.7352482999995118],[1],['target_find'],300.2430563000016,301.2567435000001,,,,,,,,,,,,,,,,,,,,,,,,,,,,,,,,087797,001,2023-11-13_13h40.54.370,Selektive Wahrnehmung,2023.2.3,59.96390173158958,2023-11-13 14h01.45.844709 +0100,
gruppe1,0,6,6,6,,,,,301.388858100001,,,,,,,,,,301.2574960000002,301.388858100001,303.3888371000012,304.3053566000017,3.0488986000000295,305.24179790000017,"[0, 300]",[-0.011111111111111112],[0.18981481481481483],[1],[0],[0],[0.9353305000004184],[1],['target_find'],305.2429662000013,306.256537700001,,,,,,,,,,,,,,,,,,,,,,,,,,,,,,,,087797,001,2023-11-13_13h40.54.370,Selektive Wahrnehmung,2023.2.3,59.96390173158958,2023-11-13 14h01.45.844709 +0100,
gruppe2,0,7,7,7,,,,,306.3885222000008,,,,,,,,,,306.25732700000117,306.3885222000008,308.3897810000017,309.30534010000156,3.048870300000999,310.5581355000013,"[-300, -300]",[-0.2740740740740741],[-0.2388888888888889],[1],[0],[0],[1.2519962999995187],[1],['target_find'],310.5592005000017,311.5729485000011,,,,,,,,,,,,,,,,,,,,,,,,,,,,,,,,087797,001,2023-11-13_13h40.54.370,Selektive Wahrnehmung,2023.2.3,59.96390173158958,2023-11-13 14h01.45.844709 +0100,
gesicht3,0,8,8,10,,,,,311.6219314000009,,,,,,,,,,311.5737009000004,311.6219314000009,313.6217912000011,314.6216878000014,3.048812499999258,315.39268860000084,"[0, 300]",[0.021296296296296296],[0.3425925925925926],[1],[0],[0],[0.7699827999986155],[1],['target_find'],315.39398280000023,316.4066346000018,,,,,,,,,,,,,,,,,,,,,,,,,,,,,,,,087797,001,2023-11-13_13h40.54.370,Selektive Wahrnehmung,2023.2.3,59.96390173158958,2023-11-13 14h01.45.844709 +0100,
schiff1,0,9,9,14,,,,,316.4747374000017,,,,,,,,,,316.4075795000008,316.4747374000017,318.4895260000012,319.4380989000001,3.031526999999187,320.44164920000003,"[300, 0]",[0.22777777777777777],[0.030555555555555555],[1],[0],[0],[1.0026307999996789],[1],['target_find'],320.44306830000096,321.4556893000008,,,,,,,,,,,,,,,,,,,,,,,,,,,,,,,,087797,001,2023-11-13_13h40.54.370,Selektive Wahrnehmung,2023.2.3,59.96390173158958,2023-11-13 14h01.45.844709 +0100,
schlange2,0,10,10,3,,,,,321.48809770000116,,,,,,,,,,321.4562704,321.48809770000116,323.4880559000012,324.4878583000009,2.999054800000522,325.94075580000026,"[300, 0]",[0.14814814814814814],[0.001851851851851852],[1],[0],[0],[1.4848598000007769],[1],['target_find'],325.941851900001,326.9557539000016,,,,,,,,,,,,,,,,,,,,,,,,,,,,,,,,087797,001,2023-11-13_13h40.54.370,Selektive Wahrnehmung,2023.2.3,59.96390173158958,2023-11-13 14h01.45.844709 +0100,
person1,0,11,11,4,,,,,327.0710426000005,,,,,,,,,,326.95649270000104,327.0710426000005,329.0710114000012,330.0040889000011,3.048394899999039,331.04063660000065,"[300, 0]",[0.1787037037037037],[0.007407407407407408],[1],[0],[0],[1.0355885999997554],[1],['target_find'],331.0421187000011,332.0560555000011,,,,,,,,,,,,,,,,,,,,,,,,,,,,,,,,087797,001,2023-11-13_13h40.54.370,Selektive Wahrnehmung,2023.2.3,59.96390173158958,2023-11-13 14h01.45.844709 +0100,
schlange1,0,12,12,2,,,,,332.1571072000006,,,,,,,,,,332.05635170000096,332.1571072000006,334.1710522000012,335.10423960000116,3.048279200000252,336.09033010000167,"[-300, -300]",[-0.26666666666666666],[-0.21296296296296297],[1],[0],[0],[0.985542099999293],[1],['target_find'],336.0908567000006,337.1059458000018,,,,,,,,,,,,,,,,,,,,,,,,,,,,,,,,087797,001,2023-11-13_13h40.54.370,Selektive Wahrnehmung,2023.2.3,59.96390173158958,2023-11-13 14h01.45.844709 +0100,
flugzeug1,0,13,13,13,,,,,337.17198720000124,,,,,,,,,,337.1067154000011,337.17198720000124,339.17202160000124,340.1904091000015,3.084535300000425,341.65813920000073,"[300, -300]",[0.29259259259259257],[-0.2611111111111111],[1],[0],[0],[1.4669066999995266],[1],['target_find'],341.65922320000027,342.6714380000012,,,,,,,,,,,,,,,,,,,,,,,,,,,,,,,,087797,001,2023-11-13_13h40.54.370,Selektive Wahrnehmung,2023.2.3,59.96390173158958,2023-11-13 14h01.45.844709 +0100,
zug1,0,14,14,15,,,,,342.7233944000018,,,,,,,,,,342.6720139000008,342.7233944000018,344.73789450000004,345.6867061000012,3.01532749999933,346.6883985000004,"[-300, -300]",[-0.17222222222222222],[-0.29814814814814816],[1],[0],[0],[1.001202800000101],[1],['target_find'],346.68894080000064,347.7040265000014,,,,,,,,,,,,,,,,,,,,,,,,,,,,,,,,087797,001,2023-11-13_13h40.54.370,Selektive Wahrnehmung,2023.2.3,59.96390173158958,2023-11-13 14h01.45.844709 +0100,
spinne2,0,15,15,1,,,,,347.90353200000027,,,,,,,,,,347.70436020000125,347.90353200000027,349.90357440000116,350.73697150000044,3.033215100000234,351.6722000000009,"[-300, -300]",[-0.17314814814814813],[-0.28888888888888886],[1],[0],[0],[0.9345042999993893],[1],['target_find'],351.6726905000014,352.68727150000086,,,,,,,,,,,,,,,,,,,,,,,,,,,,,,,,087797,001,2023-11-13_13h40.54.370,Selektive Wahrnehmung,2023.2.3,59.96390173158958,2023-11-13 14h01.45.844709 +0100,
spinne1,1,0,16,0,,,,,352.73685000000114,,,,,,,,,,352.6875368000001,352.73685000000114,354.7366359000007,355.7367262000007,3.0495410000003176,357.0723560000006,"[300, 0]",[0.21203703703703702],[-0.04537037037037037],[1],[0],[0],[1.3348354999998264],[1],['target_find'],357.0734577000003,358.0888046,,,,,,,,,,,,,,,,,,,,,,,,,,,,,,,,087797,001,2023-11-13_13h40.54.370,Selektive Wahrnehmung,2023.2.3,59.96390173158958,2023-11-13 14h01.45.844709 +0100,
schlange1,1,1,17,2,,,,,358.1229017000005,,,,,,,,,,358.0894179000006,358.1229017000005,360.13663440000164,361.1199097000008,3.031177700000626,362.0542836000004,"[0, 300]",[0.021296296296296296],[0.18425925925925926],[1],[0],[0],[0.9338174000004074],[1],['target_find'],362.0548492000016,363.070628200001,,,,,,,,,,,,,,,,,,,,,,,,,,,,,,,,087797,001,2023-11-13_13h40.54.370,Selektive Wahrnehmung,2023.2.3,59.96390173158958,2023-11-13 14h01.45.844709 +0100,
auto1,1,2,18,12,,,,,363.1030885,,,,,,,,,,363.07122080000045,363.1030885,365.10271140000077,366.1029408000013,3.0323876999991626,366.95515500000147,"[300, 300]",[0.18888888888888888],[0.225],[1],[0],[0],[0.8514625000007072],[1],['target_find'],366.95608880000145,367.9719081000003,,,,,,,,,,,,,,,,,,,,,,,,,,,,,,,,087797,001,2023-11-13_13h40.54.370,Selektive Wahrnehmung,2023.2.3,59.96390173158958,2023-11-13 14h01.45.844709 +0100,
gesicht3,1,3,19,10,,,,,368.0037177000013,,,,,,,,,,367.972648500001,368.0037177000013,370.020693800001,371.0193340000005,3.0474953000011737,371.6044330000004,"[0, 300]",[0.04814814814814815],[0.24722222222222223],[1],[0],[0],[0.5845408000004682],[1],['target_find'],371.60505710000143,372.6204394000015,,,,,,,,,,,,,,,,,,,,,,,,,,,,,,,,087797,001,2023-11-13_13h40.54.370,Selektive Wahrnehmung,2023.2.3,59.96390173158958,2023-11-13 14h01.45.844709 +0100,
gruppe2,1,4,20,7,,,,,372.6691720000017,,,,,,,,,,372.6212045000011,372.6691720000017,374.66920820000087,375.652463800001,3.0320917000008194,376.5226814000016,"[-300, 300]",[-0.23796296296296296],[0.1824074074074074],[1],[0],[0],[0.8692009999995207],[1],['target_find'],376.52409290000105,377.5369049000001,,,,,,,,,,,,,,,,,,,,,,,,,,,,,,,,087797,001,2023-11-13_13h40.54.370,Selektive Wahrnehmung,2023.2.3,59.96390173158958,2023-11-13 14h01.45.844709 +0100,
person1,1,5,21,4,,,,,377.58559830000013,,,,,,,,,,377.53765420000127,377.58559830000013,379.5868214000002,380.5690323000017,3.0322083000010025,381.2222915000002,"[-300, 300]",[-0.23796296296296296],[0.1814814814814815],[1],[0],[0],[0.6523318999988987],[1],['target_find'],381.22370430000046,382.23703900000146,,,,,,,,,,,,,,,,,,,,,,,,,,,,,,,,087797,001,2023-11-13_13h40.54.370,Selektive Wahrnehmung,2023.2.3,59.96390173158958,2023-11-13 14h01.45.844709 +0100,
gesicht2,1,6,22,9,,,,,382.28533590000006,,,,,,,,,,382.2380344000012,382.28533590000006,384.2854735000001,385.2686005000014,3.0316333000009763,385.85461570000007,"[-300, 300]",[-0.2361111111111111],[0.17962962962962964],[1],[0],[0],[0.5852104000005056],[1],['target_find'],385.8557115000003,386.87041860000136,,,,,,,,,,,,,,,,,,,,,,,,,,,,,,,,087797,001,2023-11-13_13h40.54.370,Selektive Wahrnehmung,2023.2.3,59.96390173158958,2023-11-13 14h01.45.844709 +0100,
schlange2,1,7,23,3,,,,,386.90506410000125,,,,,,,,,,386.8710557000013,386.90506410000125,388.9187223000008,389.8853013000007,3.0149742999983573,391.47114580000016,"[-300, -300]",[-0.21388888888888888],[-0.22685185185185186],[1],[0],[0],[1.5850537000005716],[1],['target_find'],391.4721690000006,392.48629340000116,,,,,,,,,,,,,,,,,,,,,,,,,,,,,,,,087797,001,2023-11-13_13h40.54.370,Selektive Wahrnehmung,2023.2.3,59.96390173158958,2023-11-13 14h01.45.844709 +0100,
gruppe1,1,8,24,6,,,,,392.53503080000155,,,,,,,,,,392.48709600000075,392.53503080000155,394.535088300001,395.5350569000002,3.0490251000010176,396.77117830000134,"[-300, 0]",[-0.2111111111111111],[-0.04722222222222222],[1],[0],[0],[1.2349932999986777],[1],['target_find'],396.7723846000008,397.78606260000015,,,,,,,,,,,,,,,,,,,,,,,,,,,,,,,,087797,001,2023-11-13_13h40.54.370,Selektive Wahrnehmung,2023.2.3,59.96390173158958,2023-11-13 14h01.45.844709 +0100,
schiff1,1,9,25,14,,,,,397.8347220000014,,,,,,,,,,397.78682730000037,397.8347220000014,399.83479890000126,400.81781990000127,3.0318105000005744,404.63733500000126,"[300, 300]",[0.23148148148148148],[0.22777777777777777],[1],[0],[0],[3.818715199999133],[1],['target_find'],404.6383501,405.65326690000074,,,,,,,,,,,,,,,,,,,,,,,,,,,,,,,,087797,001,2023-11-13_13h40.54.370,Selektive Wahrnehmung,2023.2.3,59.96390173158958,2023-11-13 14h01.45.844709 +0100,
gesicht1,1,10,26,8,,,,,405.68762160000006,,,,,,,,,,405.65388070000154,405.68762160000006,407.7014513000013,408.68451860000096,3.031331300000602,409.4044603000002,"[0, 300]",[-0.016666666666666666],[0.2175925925925926],[1],[0],[0],[0.719009599999481],[1],['target_find'],409.40588520000165,410.418795900001,,,,,,,,,,,,,,,,,,,,,,,,,,,,,,,,087797,001,2023-11-13_13h40.54.370,Selektive Wahrnehmung,2023.2.3,59.96390173158958,2023-11-13 14h01.45.844709 +0100,
zug1,1,11,27,15,,,,,410.4675891000006,,,,,,,,,,410.41946050000115,410.4675891000006,412.46763160000046,413.45058020000033,3.031846800000494,414.871441700001,"[-300, 0]",[-0.2111111111111111],[-0.006481481481481481],[1],[0],[0],[1.4200012000001152],[1],['target_find'],414.87284080000063,415.8857575000002,,,,,,,,,,,,,,,,,,,,,,,,,,,,,,,,087797,001,2023-11-13_13h40.54.370,Selektive Wahrnehmung,2023.2.3,59.96390173158958,2023-11-13 14h01.45.844709 +0100,
flugzeug1,1,12,28,13,,,,,415.9203482000012,,,,,,,,,,415.8863815000004,415.9203482000012,417.93475800000124,418.90174580000166,3.016047699999035,420.3026260000006,"[300, 0]",[0.21574074074074073],[0.0],[1],[0],[0],[1.400163899999825],[1],['target_find'],420.3036226000004,421.31781220000084,,,,,,,,,,,,,,,,,,,,,,,,,,,,,,,,087797,001,2023-11-13_13h40.54.370,Selektive Wahrnehmung,2023.2.3,59.96390173158958,2023-11-13 14h01.45.844709 +0100,
gesicht4,1,13,29,11,,,,,421.3505838000001,,,,,,,,,,421.3182233000007,421.3505838000001,423.35051250000106,424.33384260000093,3.0161205000003974,425.1707716000001,"[-300, 300]",[-0.30648148148148147],[0.2462962962962963],[1],[0],[0],[0.8363860000008572],[1],['target_find'],425.17129580000073,426.18572340000173,,,,,,,,,,,,,,,,,,,,,,,,,,,,,,,,087797,001,2023-11-13_13h40.54.370,Selektive Wahrnehmung,2023.2.3,59.96390173158958,2023-11-13 14h01.45.844709 +0100,
person2,1,14,30,5,,,,,426.22025310000026,,,,,,,,,,426.1863407000001,426.22025310000026,428.23370440000144,429.23346120000133,3.0478069000000687,430.1864263000007,"[300, 300]",[0.23333333333333334],[0.28055555555555556],[1],[0],[0],[0.9524568000015279],[1],['target_find'],430.1869471000009,431.20092000000113,,,,,,,,,,,,,,,,,,,,,,,,,,,,,,,,087797,001,2023-11-13_13h40.54.370,Selektive Wahrnehmung,2023.2.3,59.96390173158958,2023-11-13 14h01.45.844709 +0100,
spinne2,1,15,31,1,,,,,431.40011460000096,,,,,,,,,,431.20148750000044,431.40011460000096,433.40008860000125,434.2501271000001,2.9990555999993376,435.1535287000006,"[0, 300]",[0.03518518518518519],[0.24074074074074073],[1],[0],[0],[0.9521973999999318],[1],['target_find'],435.1549518000011,436.1687439000016,,,,,,,,,,,,,,,,,,,,,,,,,,,,,,,,087797,001,2023-11-13_13h40.54.370,Selektive Wahrnehmung,2023.2.3,59.96390173158958,2023-11-13 14h01.45.844709 +0100,
spinne2,2,0,32,1,,,,,436.3694918000001,,,,,,,,,,436.16925150000134,436.3694918000001,438.38435500000014,439.1994785000006,3.030789399999776,440.36880010000095,"[300, -300]",[0.27685185185185185],[-0.2759259259259259],[1],[0],[0],[1.1686000999998214],[1],['target_find'],440.36977880000086,441.3840278000007,,,,,,,,,,,,,,,,,,,,,,,,,,,,,,,,087797,001,2023-11-13_13h40.54.370,Selektive Wahrnehmung,2023.2.3,59.96390173158958,2023-11-13 14h01.45.844709 +0100,
zug1,2,1,33,15,,,,,441.4494835000005,,,,,,,,,,441.38466450000124,441.4494835000005,443.4497121000004,444.44970150000154,2.999136800000997,445.31980940000176,"[-300, -300]",[-0.2611111111111111],[-0.25462962962962965],[1],[0],[0],[0.9351586000011594],[1],['target_find'],445.32121820000066,446.33433050000167,,,,,,,,,,,,,,,,,,,,,,,,,,,,,,,,087797,001,2023-11-13_13h40.54.370,Selektive Wahrnehmung,2023.2.3,59.96390173158958,2023-11-13 14h01.45.844709 +0100,
spinne1,2,2,34,0,,,,,446.40263400000003,,,,,,,,,,446.33509330000015,446.40263400000003,448.417300000001,449.3659295000016,3.0316446000015276,450.7009684000004,"[300, 300]",[0.2611111111111111],[0.24444444444444444],[1],[0],[0],[1.3345084000011411],[1],['target_find'],450.7015775,451.71637420000116,,,,,,,,,,,,,,,,,,,,,,,,,,,,,,,,087797,001,2023-11-13_13h40.54.370,Selektive Wahrnehmung,2023.2.3,59.96390173158958,2023-11-13 14h01.45.844709 +0100,
gesicht2,2,3,35,9,,,,,451.749218500001,,,,,,,,,,451.71667210000123,451.749218500001,453.74909280000065,454.73261450000064,3.016531400000531,455.4685513000004,"[-300, 0]",[-0.24814814814814815],[-0.025],[1],[0],[0],[0.7348020999997971],[1],['target_find'],455.4696606000016,456.4849316,,,,,,,,,,,,,,,,,,,,,,,,,,,,,,,,087797,001,2023-11-13_13h40.54.370,Selektive Wahrnehmung,2023.2.3,59.96390173158958,2023-11-13 14h01.45.844709 +0100,
gesicht4,2,4,36,11,,,,,456.5355707000017,,,,,,,,,,456.4857082000017,456.5355707000017,458.54976830000123,459.5321221000013,3.047231599999577,460.118514400001,"[-300, 0]",[-0.2490740740740741],[-0.025],[1],[0],[0],[0.5855277000009664],[1],['target_find'],460.11982810000154,461.1334570000017,,,,,,,,,,,,,,,,,,,,,,,,,,,,,,,,087797,001,2023-11-13_13h40.54.370,Selektive Wahrnehmung,2023.2.3,59.96390173158958,2023-11-13 14h01.45.844709 +0100,
flugzeug1,2,5,37,13,,,,,461.18217130000085,,,,,,,,,,461.1342132000009,461.18217130000085,463.18212440000025,464.1655006000001,3.032111200000145,465.6520277000018,"[-300, -300]",[-0.27037037037037037],[-0.21944444444444444],[1],[0],[0],[1.4855774000006932],[1],['target_find'],465.6533860000018,466.6677744000008,,,,,,,,,,,,,,,,,,,,,,,,,,,,,,,,087797,001,2023-11-13_13h40.54.370,Selektive Wahrnehmung,2023.2.3,59.96390173158958,2023-11-13 14h01.45.844709 +0100,
person1,2,6,38,4,,,,,466.7185676000008,,,,,,,,,,466.66844630000014,466.7185676000008,468.73315770000045,469.7152225000009,3.047518100000161,470.66809360000116,"[300, 300]",[0.3638888888888889],[0.25462962962962965],[1],[0],[0],[0.9520501999995759],[1],['target_find'],470.6692455000011,471.6826937000005,,,,,,,,,,,,,,,,,,,,,,,,,,,,,,,,087797,001,2023-11-13_13h40.54.370,Selektive Wahrnehmung,2023.2.3,59.96390173158958,2023-11-13 14h01.45.844709 +0100,
gesicht1,2,7,39,8,,,,,471.7152141000006,,,,,,,,,,471.68328140000085,471.7152141000006,473.71494860000166,474.731393,3.048735599999418,475.601560000001,"[0, 300]",[0.04814814814814815],[0.24814814814814815],[1],[0],[0],[0.8695353999992221],[1],['target_find'],475.60209400000167,476.6174734000015,,,,,,,,,,,,,,,,,,,,,,,,,,,,,,,,087797,001,2023-11-13_13h40.54.370,Selektive Wahrnehmung,2023.2.3,59.96390173158958,2023-11-13 14h01.45.844709 +0100,
schlange2,2,8,40,3,,,,,476.68468740000026,,,,,,,,,,476.6182114000003,476.68468740000026,478.69941740000104,479.6646285000006,3.047205299999405,481.8185278000001,"[-300, 0]",[-0.19907407407407407],[0.023148148148148147],[1],[0],[0],[2.1531159999994998],[1],['target_find'],481.81959050000114,482.8321489000009,,,,,,,,,,,,,,,,,,,,,,,,,,,,,,,,087797,001,2023-11-13_13h40.54.370,Selektive Wahrnehmung,2023.2.3,59.96390173158958,2023-11-13 14h01.45.844709 +0100,
gesicht3,2,9,41,10,,,,,482.88148720000027,,,,,,,,,,482.832726300001,482.88148720000027,484.88106270000026,485.86418480000066,2.9991907000003266,486.4678846000006,"[-300, 300]",[-0.20277777777777778],[0.21203703703703702],[1],[0],[0],[0.635241699999824],[1],['target_find'],486.46929590000036,487.48292420000143,,,,,,,,,,,,,,,,,,,,,,,,,,,,,,,,087797,001,2023-11-13_13h40.54.370,Selektive Wahrnehmung,2023.2.3,59.96390173158958,2023-11-13 14h01.45.844709 +0100,
schiff1,2,10,42,14,,,,,487.54899690000093,,,,,,,,,,487.4836754000007,487.54899690000093,489.5490073000001,490.51420620000135,3.031348500000604,491.3324289000011,"[300, 300]",[0.2712962962962963],[0.24074074074074073],[1],[0],[0],[0.8177247000003263],[1],['target_find'],491.3329741000016,492.3486713000002,,,,,,,,,,,,,,,,,,,,,,,,,,,,,,,,087797,001,2023-11-13_13h40.54.370,Selektive Wahrnehmung,2023.2.3,59.96390173158958,2023-11-13 14h01.45.844709 +0100,
gruppe1,2,11,43,6,,,,,492.3974107000013,,,,,,,,,,492.3494666000006,492.3974107000013,494.3975554000008,495.3975332000009,3.048932199999399,496.43341040000087,"[300, 0]",[0.2898148148148148],[-0.025],[1],[0],[0],[1.0354121000000305],[1],['target_find'],496.43394760000047,497.4495872000007,,,,,,,,,,,,,,,,,,,,,,,,,,,,,,,,087797,001,2023-11-13_13h40.54.370,Selektive Wahrnehmung,2023.2.3,59.96390173158958,2023-11-13 14h01.45.844709 +0100,
gruppe2,2,12,44,7,,,,,497.50031020000097,,,,,,,,,,497.4503392000006,497.50031020000097,499.5153089000014,500.4805664000014,2.9990854999996372,501.43443450000086,"[300, 0]",[0.28888888888888886],[-0.025925925925925925],[1],[0],[0],[0.9844248999997944],[1],['target_find'],501.43573930000093,502.4484872000012,,,,,,,,,,,,,,,,,,,,,,,,,,,,,,,,087797,001,2023-11-13_13h40.54.370,Selektive Wahrnehmung,2023.2.3,59.96390173158958,2023-11-13 14h01.45.844709 +0100,
person2,2,13,45,5,,,,,502.4969779000003,,,,,,,,,,502.44923220000055,502.4969779000003,504.4970452000016,505.49721800000043,3.0490300999990723,506.3330633000005,"[300, 300]",[0.2388888888888889],[0.25833333333333336],[1],[0],[0],[0.8348000999994838],[1],['target_find'],506.3340605000012,507.3486018000003,,,,,,,,,,,,,,,,,,,,,,,,,,,,,,,,087797,001,2023-11-13_13h40.54.370,Selektive Wahrnehmung,2023.2.3,59.96390173158958,2023-11-13 14h01.45.844709 +0100,
schlange1,2,14,46,2,,,,,507.3999014000001,,,,,,,,,,507.3492375000005,507.3999014000001,509.4136047000011,510.3801443000011,3.0316272000000026,511.2332384000001,"[300, 300]",[0.2388888888888889],[0.25555555555555554],[1],[0],[0],[0.8521481999996467],[1],['target_find'],511.2346714000014,512.2480205000011,,,,,,,,,,,,,,,,,,,,,,,,,,,,,,,,087797,001,2023-11-13_13h40.54.370,Selektive Wahrnehmung,2023.2.3,59.96390173158958,2023-11-13 14h01.45.844709 +0100,
auto1,2,15,47,12,,,,,512.2967867000007,,,,,,,,,,512.2487620000011,512.2967867000007,514.2966817000015,515.2964051000017,3.0484271999994235,516.2155725000011,"[300, 0]",[0.275],[0.016666666666666666],[1],[0],[0],[0.9184666999990441],[1],['target_find'],516.2165494000001,517.2313046000017,,,,,,,,,,,,,,,,,,,,,,,,,,,,,,,,087797,001,2023-11-13_13h40.54.370,Selektive Wahrnehmung,2023.2.3,59.96390173158958,2023-11-13 14h01.45.844709 +0100,
gruppe2,3,0,48,7,,,,,517.2996883000014,,,,,,,,,,517.2321393000002,517.2996883000014,519.314498400001,520.2628753000008,3.031659000000218,521.2830060000015,"[0, -300]",[0.004629629629629629],[-0.21666666666666667],[1],[0],[0],[1.0191809000007197],[1],['target_find'],521.2844460000015,522.2976284000015,,,,,,,,,,,,,,,,,,,,,,,,,,,,,,,,087797,001,2023-11-13_13h40.54.370,Selektive Wahrnehmung,2023.2.3,59.96390173158958,2023-11-13 14h01.45.844709 +0100,
gesicht1,3,1,49,8,,,,,522.3464064,,,,,,,,,,522.2983729000007,522.3464064,524.3462301000018,525.3458990000017,3.048340700001063,526.0309819000013,"[300, 0]",[0.3111111111111111],[-0.03518518518518519],[1],[0],[0],[0.6845585000010033],[1],['target_find'],526.0314922000016,527.0470914000016,,,,,,,,,,,,,,,,,,,,,,,,,,,,,,,,087797,001,2023-11-13_13h40.54.370,Selektive Wahrnehmung,2023.2.3,59.96390173158958,2023-11-13 14h01.45.844709 +0100,
gruppe1,3,2,50,6,,,,,527.0993977000016,,,,,,,,,,527.0477198000008,527.0993977000016,529.1139707000002,530.0626298000006,3.0156091999997443,530.8650015000003,"[0, -300]",[0.008333333333333333],[-0.2490740740740741],[1],[0],[0],[0.8015233999994962],[1],['target_find'],530.8660651000009,531.8804506000015,,,,,,,,,,,,,,,,,,,,,,,,,,,,,,,,087797,001,2023-11-13_13h40.54.370,Selektive Wahrnehmung,2023.2.3,59.96390173158958,2023-11-13 14h01.45.844709 +0100,
flugzeug1,3,3,51,13,,,,,531.9291177000014,,,,,,,,,,531.8811846000008,531.9291177000014,533.9291768000003,534.9125452000007,3.0321641999998974,536.1004353000008,"[-300, 0]",[-0.25],[-0.07777777777777778],[1],[0],[0],[1.1869250999989163],[1],['target_find'],536.1017114000006,537.1140950000008,,,,,,,,,,,,,,,,,,,,,,,,,,,,,,,,087797,001,2023-11-13_13h40.54.370,Selektive Wahrnehmung,2023.2.3,59.96390173158958,2023-11-13 14h01.45.844709 +0100,
zug1,3,4,52,15,,,,,537.1487365000012,,,,,,,,,,537.114647800001,537.1487365000012,539.1635947000013,540.1289250000009,3.0149127999993652,541.0819304000015,"[-300, 300]",[-0.2675925925925926],[0.27314814814814814],[1],[0],[0],[0.9521336999987398],[1],['target_find'],541.0829842000003,542.0972660000007,,,,,,,,,,,,,,,,,,,,,,,,,,,,,,,,087797,001,2023-11-13_13h40.54.370,Selektive Wahrnehmung,2023.2.3,59.96390173158958,2023-11-13 14h01.45.844709 +0100,
schlange1,3,5,53,2,,,,,542.1318442000011,,,,,,,,,,542.0978505000003,542.1318442000011,544.1455962,545.1119735000011,3.0147815000000264,546.1634046000017,"[300, -300]",[0.2759259259259259],[-0.26296296296296295],[1],[0],[0],[1.0509577000011632],[1],['target_find'],546.1639423000015,547.1794532000004,,,,,,,,,,,,,,,,,,,,,,,,,,,,,,,,087797,001,2023-11-13_13h40.54.370,Selektive Wahrnehmung,2023.2.3,59.96390173158958,2023-11-13 14h01.45.844709 +0100,
spinne1,3,6,54,0,,,,,547.2119281000014,,,,,,,,,,547.1800417000013,547.2119281000014,549.2119190000012,550.1951058000013,3.015729899998405,551.4641807000007,"[-300, 0]",[-0.3037037037037037],[-0.025925925925925925],[1],[0],[0],[1.2682557999996789],[1],['target_find'],551.4652389000003,552.479540100001,,,,,,,,,,,,,,,,,,,,,,,,,,,,,,,,087797,001,2023-11-13_13h40.54.370,Selektive Wahrnehmung,2023.2.3,59.96390173158958,2023-11-13 14h01.45.844709 +0100,
schlange2,3,7,55,3,,,,,552.5146038000003,,,,,,,,,,552.4801318000009,552.5146038000003,554.5283930000005,555.4947337000012,3.0152477999999974,557.3977652000012,"[-300, 0]",[-0.24166666666666667],[0.010185185185185186],[1],[0],[0],[1.9021899999988818],[1],['target_find'],557.398747700001,558.4126422000008,,,,,,,,,,,,,,,,,,,,,,,,,,,,,,,,087797,001,2023-11-13_13h40.54.370,Selektive Wahrnehmung,2023.2.3,59.96390173158958,2023-11-13 14h01.45.844709 +0100,
gesicht2,3,8,56,9,,,,,558.4613944000012,,,,,,,,,,558.4133939000003,558.4613944000012,560.4613860000009,561.4612916000005,3.048718400001235,562.2646913000008,"[0, 300]",[0.03981481481481482],[0.19722222222222222],[1],[0],[0],[0.8026647999995475],[1],['target_find'],562.2656702000004,563.2805252000016,,,,,,,,,,,,,,,,,,,,,,,,,,,,,,,,087797,001,2023-11-13_13h40.54.370,Selektive Wahrnehmung,2023.2.3,59.96390173158958,2023-11-13 14h01.45.844709 +0100,
gesicht3,3,9,57,10,,,,,563.3310855000018,,,,,,,,,,563.2812809000006,563.3310855000018,565.345848500001,566.327806700001,3.047347499999887,566.8147537000004,"[0, 300]",[0.03981481481481482],[0.18611111111111112],[1],[0],[0],[0.48622230000000854],[1],['target_find'],566.8156176000011,567.8299877000009,,,,,,,,,,,,,,,,,,,,,,,,,,,,,,,,087797,001,2023-11-13_13h40.54.370,Selektive Wahrnehmung,2023.2.3,59.96390173158958,2023-11-13 14h01.45.844709 +0100,
schiff1,3,10,58,14,,,,,567.8622865000016,,,,,,,,,,567.8306275000014,567.8622865000016,569.8623451000003,570.8608120000008,3.031045499999891,572.0966614000008,"[300, 300]",[0.19074074074074074],[0.19166666666666668],[1],[0],[0],[1.234866200000397],[1],['target_find'],572.0976567000016,573.1116691000007,,,,,,,,,,,,,,,,,,,,,,,,,,,,,,,,087797,001,2023-11-13_13h40.54.370,Selektive Wahrnehmung,2023.2.3,59.96390173158958,2023-11-13 14h01.45.844709 +0100,
spinne2,3,11,59,1,,,,,573.2942269000014,,,,,,,,,,573.1121981000015,573.2942269000014,575.2941377000006,576.1439929000007,3.032409200000984,577.2308245000004,"[300, 0]",[0.21388888888888888],[0.03796296296296296],[1],[0],[0],[1.0858764999993582],[1],['target_find'],577.2322331000014,578.2461750000002,,,,,,,,,,,,,,,,,,,,,,,,,,,,,,,,087797,001,2023-11-13_13h40.54.370,Selektive Wahrnehmung,2023.2.3,59.96390173158958,2023-11-13 14h01.45.844709 +0100,
auto1,3,12,60,12,,,,,578.3285455000005,,,,,,,,,,578.2468969000001,578.3285455000005,580.3286092000017,581.3285644000007,2.9991860999998607,582.1136381000015,"[0, 300]",[-0.06481481481481481],[0.21666666666666667],[1],[0],[0],[0.8673182999991695],[1],['target_find'],582.1141652000006,583.1286303000015,,,,,,,,,,,,,,,,,,,,,,,,,,,,,,,,087797,001,2023-11-13_13h40.54.370,Selektive Wahrnehmung,2023.2.3,59.96390173158958,2023-11-13 14h01.45.844709 +0100,
person2,3,13,61,5,,,,,583.1949806000011,,,,,,,,,,583.1294360000011,583.1949806000011,585.1950238000009,586.1600836000016,3.0314954000004946,587.0793715,"[0, -300]",[-0.009259259259259259],[-0.21574074074074073],[1],[0],[0],[0.9184929999992164],[1],['target_find'],587.0805956000004,588.0945116000003,,,,,,,,,,,,,,,,,,,,,,,,,,,,,,,,087797,001,2023-11-13_13h40.54.370,Selektive Wahrnehmung,2023.2.3,59.96390173158958,2023-11-13 14h01.45.844709 +0100,
gesicht4,3,14,62,11,,,,,588.1269464000015,,,,,,,,,,588.0951134000006,588.1269464000015,590.1268249000004,591.1265406000002,2.9991327000007004,592.3641222000006,"[300, 300]",[0.2518518518518518],[0.2324074074074074],[1],[0],[0],[1.2691570999995747],[1],['target_find'],592.365320500001,593.3775847000015,,,,,,,,,,,,,,,,,,,,,,,,,,,,,,,,087797,001,2023-11-13_13h40.54.370,Selektive Wahrnehmung,2023.2.3,59.96390173158958,2023-11-13 14h01.45.844709 +0100,
person1,3,15,63,4,,,,,593.4298998000013,,,,,,,,,,593.3781628000015,593.4298998000013,595.4439703000007,596.4099472000016,3.032631300000503,597.2126535000007,"[-300, 300]",[-0.2175925925925926],[0.23055555555555557],[1],[0],[0],[0.8016190999987884],[1],['target_find'],597.2137149000009,598.2266537000014,,,,,,,,,,,,,,,,,,,,,,,,,,,,,,,,087797,001,2023-11-13_13h40.54.370,Selektive Wahrnehmung,2023.2.3,59.96390173158958,2023-11-13 14h01.45.844709 +0100,
person2,4,0,64,5,,,,,598.2594295000017,,,,,,,,,,598.2269437000014,598.2594295000017,600.2594184000009,601.2428855000016,3.0164734999998473,602.0275044000009,"[300, 0]",[0.22777777777777777],[0.05555555555555555],[1],[0],[0],[0.783891400000357],[1],['target_find'],602.0280024000003,603.0445828000011,,,,,,,,,,,,,,,,,,,,,,,,,,,,,,,,087797,001,2023-11-13_13h40.54.370,Selektive Wahrnehmung,2023.2.3,59.96390173158958,2023-11-13 14h01.45.844709 +0100,
spinne2,4,1,65,1,,,,,603.2428678000015,,,,,,,,,,603.0448584000005,603.2428678000015,605.2435709000001,606.0758470000001,3.031351800000266,606.5939069000015,"[300, 0]",[0.22777777777777777],[0.05462962962962963],[1],[0],[0],[0.5175536999995529],[1],['target_find'],606.5944724000001,607.6096896000017,,,,,,,,,,,,,,,,,,,,,,,,,,,,,,,,087797,001,2023-11-13_13h40.54.370,Selektive Wahrnehmung,2023.2.3,59.96390173158958,2023-11-13 14h01.45.844709 +0100,
auto1,4,2,66,12,,,,,607.6591725000017,,,,,,,,,,607.6099406000012,607.6591725000017,609.6593239000013,610.6593111000002,3.049871400000484,612.1467650000013,"[-300, -300]",[-0.2574074074074074],[-0.23148148148148148],[1],[0],[0],[1.4863244999996823],[1],['target_find'],612.1481798000004,613.1612404000007,,,,,,,,,,,,,,,,,,,,,,,,,,,,,,,,087797,001,2023-11-13_13h40.54.370,Selektive Wahrnehmung,2023.2.3,59.96390173158958,2023-11-13 14h01.45.844709 +0100,
schiff1,4,3,67,14,,,,,613.1938448000001,,,,,,,,,,613.1617485000006,613.1938448000001,615.1936232000007,616.2090633000007,2.999227800000881,617.1791666000008,"[0, 300]",[-0.09166666666666666],[0.1675925925925926],[1],[0],[0],[1.0174765000010666],[1],['target_find'],617.1803108000004,618.1935188000007,,,,,,,,,,,,,,,,,,,,,,,,,,,,,,,,087797,001,2023-11-13_13h40.54.370,Selektive Wahrnehmung,2023.2.3,59.96390173158958,2023-11-13 14h01.45.844709 +0100,
flugzeug1,4,4,68,13,,,,,618.225464000001,,,,,,,,,,618.1942628000015,618.225464000001,620.2255411000006,621.2255608000014,3.032312200000888,623.5285145000016,"[300, 0]",[0.24259259259259258],[0.03888888888888889],[1],[0],[0],[2.301663500000359],[1],['target_find'],623.5299404000016,624.5435724000017,,,,,,,,,,,,,,,,,,,,,,,,,,,,,,,,087797,001,2023-11-13_13h40.54.370,Selektive Wahrnehmung,2023.2.3,59.96390173158958,2023-11-13 14h01.45.844709 +0100,
spinne1,4,5,69,0,,,,,624.6116889000004,,,,,,,,,,624.5445334000015,624.6116889000004,626.625310200001,627.5753954000011,3.031904499999655,629.3932873000012,"[300, 300]",[0.2],[0.21944444444444444],[1],[0],[0],[1.8173022999999375],[1],['target_find'],629.3938268000002,630.4096510000018,,,,,,,,,,,,,,,,,,,,,,,,,,,,,,,,087797,001,2023-11-13_13h40.54.370,Selektive Wahrnehmung,2023.2.3,59.96390173158958,2023-11-13 14h01.45.844709 +0100,
gruppe1,4,6,70,6,,,,,630.4416841000002,,,,,,,,,,630.4103915000014,630.4416841000002,632.4416841000002,633.4415940000017,3.032017100000303,634.2953964000008,"[300, -300]",[0.19907407407407407],[-0.2953703703703704],[1],[0],[0],[0.8529197999996541],[1],['target_find'],634.2965677000011,635.3096138000001,,,,,,,,,,,,,,,,,,,,,,,,,,,,,,,,087797,001,2023-11-13_13h40.54.370,Selektive Wahrnehmung,2023.2.3,59.96390173158958,2023-11-13 14h01.45.844709 +0100,
gesicht1,4,7,71,8,,,,,635.3762471000009,,,,,,,,,,635.3103314,635.3762471000009,637.3760340000008,638.3415059000017,3.0319792999998754,639.3270934000011,"[-300, -300]",[-0.30833333333333335],[-0.3351851851851852],[1],[0],[0],[0.9847850999994989],[1],['target_find'],639.3280887000001,640.3425744000015,,,,,,,,,,,,,,,,,,,,,,,,,,,,,,,,087797,001,2023-11-13_13h40.54.370,Selektive Wahrnehmung,2023.2.3,59.96390173158958,2023-11-13 14h01.45.844709 +0100,
schlange1,4,8,72,2,,,,,640.3913075,,,,,,,,,,640.3433067000005,640.3913075,642.3913708,643.3741926000002,3.0316681999993307,644.2435886000003,"[0, 300]",[-0.07407407407407407],[0.22592592592592592],[1],[0],[0],[0.8686390999992],[1],['target_find'],644.2444848000014,645.259850800001,,,,,,,,,,,,,,,,,,,,,,,,,,,,,,,,087797,001,2023-11-13_13h40.54.370,Selektive Wahrnehmung,2023.2.3,59.96390173158958,2023-11-13 14h01.45.844709 +0100,
schlange2,4,9,73,3,,,,,645.2924473000003,,,,,,,,,,645.2604611000006,645.2924473000003,647.2925012000014,648.2910230000016,3.031242699998984,649.3777280000013,"[300, 300]",[0.24351851851851852],[0.23703703703703705],[1],[0],[0],[1.086200400000962],[1],['target_find'],649.3782595000011,650.3931324000005,,,,,,,,,,,,,,,,,,,,,,,,,,,,,,,,087797,001,2023-11-13_13h40.54.370,Selektive Wahrnehmung,2023.2.3,59.96390173158958,2023-11-13 14h01.45.844709 +0100,
gesicht3,4,10,74,10,,,,,650.4588112000001,,,,,,,,,,650.3938811000007,650.4588112000001,652.4577167000007,653.4407947000018,2.9991722000013397,654.409791,"[-300, -300]",[-0.26296296296296295],[-0.2851851851851852],[1],[0],[0],[1.0162457000005816],[1],['target_find'],654.4109515,655.425439300001,,,,,,,,,,,,,,,,,,,,,,,,,,,,,,,,087797,001,2023-11-13_13h40.54.370,Selektive Wahrnehmung,2023.2.3,59.96390173158958,2023-11-13 14h01.45.844709 +0100,
person1,4,11,75,4,,,,,655.4574569000015,,,,,,,,,,655.4264191000002,655.4574569000015,657.4574289000011,658.4740415000015,3.0488571999994747,659.4433988000001,"[300, 0]",[0.2712962962962963],[-0.027777777777777776],[1],[0],[0],[0.9683554000002914],[1],['target_find'],659.4444894000007,660.4588139000007,,,,,,,,,,,,,,,,,,,,,,,,,,,,,,,,087797,001,2023-11-13_13h40.54.370,Selektive Wahrnehmung,2023.2.3,59.96390173158958,2023-11-13 14h01.45.844709 +0100,
gesicht4,4,12,76,11,,,,,660.5250486000004,,,,,,,,,,660.4595586000014,660.5250486000004,662.5238440000012,663.4908819000011,3.0323279999993247,664.4099300000016,"[300, -300]",[0.25],[-0.26481481481481484],[1],[0],[0],[0.9179669999994076],[1],['target_find'],664.4110801000006,665.4254116000011,,,,,,,,,,,,,,,,,,,,,,,,,,,,,,,,087797,001,2023-11-13_13h40.54.370,Selektive Wahrnehmung,2023.2.3,59.96390173158958,2023-11-13 14h01.45.844709 +0100,
gruppe2,4,13,77,7,,,,,665.4915852000013,,,,,,,,,,665.426162400001,665.4915852000013,667.4914656000001,668.4568095000013,3.0314693999989686,670.4263769000008,"[300, 300]",[0.262037037037037],[0.2175925925925926],[1],[0],[0],[1.9685981000002357],[1],['target_find'],670.427816200001,671.4410118000014,,,,,,,,,,,,,,,,,,,,,,,,,,,,,,,,087797,001,2023-11-13_13h40.54.370,Selektive Wahrnehmung,2023.2.3,59.96390173158958,2023-11-13 14h01.45.844709 +0100,
zug1,4,14,78,15,,,,,671.4900493000005,,,,,,,,,,671.4416278000008,671.4900493000005,673.4897152000012,674.4732574000009,2.9990094999993744,675.2602142000014,"[0, 300]",[0.002777777777777778],[0.2574074074074074],[1],[0],[0],[0.8189137999997911],[1],['target_find'],675.2615529000013,676.2743044000017,,,,,,,,,,,,,,,,,,,,,,,,,,,,,,,,087797,001,2023-11-13_13h40.54.370,Selektive Wahrnehmung,2023.2.3,59.96390173158958,2023-11-13 14h01.45.844709 +0100,
gesicht2,4,15,79,9,,,,,676.3233052000014,,,,,,,,,,676.2750791000017,676.3233052000014,678.3231198000012,679.3063580000016,3.032122000000527,679.9909611000003,"[-300, 300]",[-0.21574074074074073],[0.24444444444444444],[1],[0],[0],[0.6840962999995099],[1],['target_find'],679.9914796000012,681.0086765000015,,,,,,,,,,,,,,,,,,,,,,,,,,,,,,,,087797,001,2023-11-13_13h40.54.370,Selektive Wahrnehmung,2023.2.3,59.96390173158958,2023-11-13 14h01.45.844709 +0100,
,,,,,0,0,0,0,688.3089715000006,,,,,,,,,,,,,,,,,,,,,,,,,,,681.0231150000018,684.5757512,684.5757817000012,688.2256383000004,688.2269729000018,699.8142872000008,1.0,1.0,gesicht2,,,,,,,,,,,,,,,,,,,,,,,087797,001,2023-11-13_13h40.54.370,Selektive Wahrnehmung,2023.2.3,59.96390173158958,2023-11-13 14h01.45.844709 +0100,
,,,,,1,0,1,0,699.8583091,,,,,,,,,,,,,,,,,,,,,,,,,,,,,,,699.8146632000007,706.0636735000007,1.0,1.0,schlange1,,,,,,,,,,,,,,,,,,,,,,,087797,001,2023-11-13_13h40.54.370,Selektive Wahrnehmung,2023.2.3,59.96390173158958,2023-11-13 14h01.45.844709 +0100,
,,,,,2,0,2,0,706.1063923000002,,,,,,,,,,,,,,,,,,,,,,,,,,,,,,,706.0639993000004,719.6299998000013,1.0,1.0,gesicht4,,,,,,,,,,,,,,,,,,,,,,,087797,001,2023-11-13_13h40.54.370,Selektive Wahrnehmung,2023.2.3,59.96390173158958,2023-11-13 14h01.45.844709 +0100,
,,,,,3,0,3,0,719.6908486000011,,,,,,,,,,,,,,,,,,,,,,,,,,,,,,,719.6303167000005,725.8131440000016,1.0,5.0,spinne2,,,,,,,,,,,,,,,,,,,,,,,087797,001,2023-11-13_13h40.54.370,Selektive Wahrnehmung,2023.2.3,59.96390173158958,2023-11-13 14h01.45.844709 +0100,
,,,,,4,0,4,0,725.9556293000005,,,,,,,,,,,,,,,,,,,,,,,,,,,,,,,725.8134677000016,730.5960673000009,1.0,1.0,schiff1,,,,,,,,,,,,,,,,,,,,,,,087797,001,2023-11-13_13h40.54.370,Selektive Wahrnehmung,2023.2.3,59.96390173158958,2023-11-13 14h01.45.844709 +0100,
,,,,,,,,,,,,,,,,,,,,,,,,,,,,,,,,,,,,,,,,,,,,,730.6001208000016,738.5745868000013,22,1.0,738.5746052000013,764.2448986000018,2.0,3.0,764.2449193000011,767.6385215000009,767.6385537000006,826.7358603000011,4.0,4.0,5.0,2.0,826.7358916000012,835.0083480000012,2.0,3.0,835.0083689000003,896.1500313000015,,,,,,,,
