Target,trials.thisRepN,trials.thisTrialN,trials.thisN,trials.thisIndex,trials_2.thisRepN,trials_2.thisTrialN,trials_2.thisN,trials_2.thisIndex,thisRow.t,notes,Data_transparency.started,key_resp_data_transp.started,Data_transparency.stopped,key_resp_data_transp.keys,key_resp_data_transp.rt,key_resp_data_transp.duration,instructions.started,instructions.stopped,trial.started,target_show.started,target_show.stopped,target_find.started,mouse.started,trial.stopped,target_position_x_y,mouse.x,mouse.y,mouse.leftButton,mouse.midButton,mouse.rightButton,mouse.time,mouse.corr,mouse.clicked_name,feedback.started,feedback.stopped,instructions_survey.started,instructions_survey.stopped,instructions_ratings.started,instructions_ratings.stopped,survey_ratings.started,survey_ratings.stopped,furcht.response,liebenswert.response,rated_image,survey_gen.started,survey_gen.stopped,age.text,gender.response,survey_games.started,survey_games.stopped,pc_frequency.response,reaction_games_frequency.response,instructions_neuro.started,instructions_neuro.stopped,survey_neuro.started,survey_neuro.stopped,neuro_1_rev.response,neuro_2.response,neuro_3.response,neuro_4_rev.response,survey_fear.started,survey_fear.stopped,specific_fear_spider.response,specific_fear_snake.response,thanks.started,thanks.stopped,participant,session,date,expName,psychopyVersion,frameRate,expStart,
,,,,,,,,,,,0.023469400000067253,0.04003319999992527,17.069952800000465,z,17.017477899999903,None,,,,,,,,,,,,,,,,,,,,,,,,,,,,,,,,,,,,,,,,,,,,,,,,,,,088980,001,2023-11-06_13h05.06.519,Selektive Wahrnehmung,2023.2.3,59.925991400636754,2023-11-06 13h06.27.901853 +0100,
,,,,,,,,,,,,,,,,,17.06997709999996,47.27115959999992,,,,,,,,,,,,,,,,,,,,,,,,,,,,,,,,,,,,,,,,,,,,,,,,,088980,001,2023-11-06_13h05.06.519,Selektive Wahrnehmung,2023.2.3,59.925991400636754,2023-11-06 13h06.27.901853 +0100,
spinne1,0,0,0,0,,,,,47.33816730000035,,,,,,,,,,47.28815710000072,47.33816730000035,49.352743600000395,50.30285570000069,3.0317611000000397,51.25481790000049,"[300, 0]",[0.2574074074074074],[-0.001851851851851852],[1],[0],[0],[0.9511185999999725],[1],['target_find'],51.257002600000305,52.26989550000053,,,,,,,,,,,,,,,,,,,,,,,,,,,,,,,,088980,001,2023-11-06_13h05.06.519,Selektive Wahrnehmung,2023.2.3,59.925991400636754,2023-11-06 13h06.27.901853 +0100,
gruppe2,0,1,1,7,,,,,52.321178500000315,,,,,,,,,,52.2704990000002,52.321178500000315,54.33488060000036,55.301320900000064,3.0314985000004526,56.67070680000052,"[-300, 300]",[-0.44722222222222224],[0.29074074074074074],[1],[0],[0],[1.3689107999998669],[],[],56.67123830000037,57.68529840000065,,,,,,,,,,,,,,,,,,,,,,,,,,,,,,,,088980,001,2023-11-06_13h05.06.519,Selektive Wahrnehmung,2023.2.3,59.925991400636754,2023-11-06 13h06.27.901853 +0100,
spinne2,0,2,2,1,,,,,57.88449470000069,,,,,,,,,,57.68579900000077,57.88449470000069,59.88448640000024,60.717784700000266,3.032563800000389,62.12247210000078,"[300, 300]",[0.2657407407407407],[0.3537037037037037],[1],[0],[0],[1.4037579999994705],[1],['target_find'],62.123871300000246,63.13616270000057,,,,,,,,,,,,,,,,,,,,,,,,,,,,,,,,088980,001,2023-11-06_13h05.06.519,Selektive Wahrnehmung,2023.2.3,59.925991400636754,2023-11-06 13h06.27.901853 +0100,
auto1,0,3,3,12,,,,,63.20234479999999,,,,,,,,,,63.13651000000027,63.20234479999999,65.20229480000035,66.20111200000065,3.0652553999998418,67.1190860000006,"[-300, -300]",[-0.2935185185185185],[-0.26944444444444443],[1],[0],[0],[0.9171152999997503],[1],['target_find'],67.11965200000031,68.13474700000006,,,,,,,,,,,,,,,,,,,,,,,,,,,,,,,,088980,001,2023-11-06_13h05.06.519,Selektive Wahrnehmung,2023.2.3,59.925991400636754,2023-11-06 13h06.27.901853 +0100,
zug1,0,4,4,15,,,,,68.16737410000042,,,,,,,,,,68.13516849999996,68.16737410000042,70.16732780000075,71.15048600000046,3.0158017999992808,71.9863275000007,"[300, -300]",[0.2675925925925926],[-0.4],[1],[0],[0],[0.8350583000001279],[1],['target_find'],71.98748460000024,73.00154550000025,,,,,,,,,,,,,,,,,,,,,,,,,,,,,,,,088980,001,2023-11-06_13h05.06.519,Selektive Wahrnehmung,2023.2.3,59.925991400636754,2023-11-06 13h06.27.901853 +0100,
person1,0,5,5,4,,,,,73.0502948000003,,,,,,,,,,73.00214250000045,73.0502948000003,75.0514402000008,76.01706880000074,3.015602399999807,77.03758880000078,"[-300, 300]",[-0.22314814814814815],[0.38055555555555554],[1],[0],[0],[1.0200463999999556],[1],['target_find'],77.03811610000048,78.0510802000008,,,,,,,,,,,,,,,,,,,,,,,,,,,,,,,,088980,001,2023-11-06_13h05.06.519,Selektive Wahrnehmung,2023.2.3,59.925991400636754,2023-11-06 13h06.27.901853 +0100,
flugzeug1,0,6,6,13,,,,,78.1002836000007,,,,,,,,,,78.0515903000005,78.1002836000007,80.10019770000054,81.06662469999992,3.0156106999993426,81.66928410000037,"[300, -300]",[0.2101851851851852],[-0.18796296296296297],[1],[0],[0],[0.6018778000006932],[1],['target_find'],81.67047510000066,82.6844415000005,,,,,,,,,,,,,,,,,,,,,,,,,,,,,,,,088980,001,2023-11-06_13h05.06.519,Selektive Wahrnehmung,2023.2.3,59.925991400636754,2023-11-06 13h06.27.901853 +0100,
person2,0,7,7,5,,,,,82.71682740000051,,,,,,,,,,82.68503030000011,82.71682740000051,84.71665830000074,85.73333240000011,2.999177600000621,86.46943960000044,"[-300, -300]",[-0.18703703703703703],[-0.24814814814814815],[1],[0],[0],[0.7845453999998426],[1],['target_find'],86.47051069999998,87.48418000000038,,,,,,,,,,,,,,,,,,,,,,,,,,,,,,,,088980,001,2023-11-06_13h05.06.519,Selektive Wahrnehmung,2023.2.3,59.925991400636754,2023-11-06 13h06.27.901853 +0100,
schiff1,0,8,8,14,,,,,87.53335730000072,,,,,,,,,,87.48476740000024,87.53335730000072,89.53413930000079,90.51663080000071,3.0325338000002375,91.37019400000008,"[300, 0]",[0.32314814814814813],[-0.02962962962962963],[1],[0],[0],[0.8526117999999769],[1],['target_find'],91.37160070000027,92.38349280000057,,,,,,,,,,,,,,,,,,,,,,,,,,,,,,,,088980,001,2023-11-06_13h05.06.519,Selektive Wahrnehmung,2023.2.3,59.925991400636754,2023-11-06 13h06.27.901853 +0100,
gruppe1,0,9,9,6,,,,,92.41632000000027,,,,,,,,,,92.38378310000007,92.41632000000027,94.41653010000027,95.39972130000024,3.0163144999996803,96.30125430000044,"[-300, 300]",[-0.2037037037037037],[0.24444444444444444],[1],[0],[0],[0.9009158999997453],[1],['target_find'],96.3020787000005,97.31837180000002,,,,,,,,,,,,,,,,,,,,,,,,,,,,,,,,088980,001,2023-11-06_13h05.06.519,Selektive Wahrnehmung,2023.2.3,59.925991400636754,2023-11-06 13h06.27.901853 +0100,
schlange1,0,10,10,2,,,,,97.3692615,,,,,,,,,,97.31887270000061,97.3692615,99.38424570000006,100.34962030000042,3.031325000000834,101.3508898,"[0, -300]",[0.09351851851851851],[-0.30462962962962964],[1],[0],[0],[1.0006743000003553],[1],['target_find'],101.35164520000035,102.36677640000016,,,,,,,,,,,,,,,,,,,,,,,,,,,,,,,,088980,001,2023-11-06_13h05.06.519,Selektive Wahrnehmung,2023.2.3,59.925991400636754,2023-11-06 13h06.27.901853 +0100,
schlange2,0,11,11,3,,,,,102.39924220000012,,,,,,,,,,102.36727180000071,102.39924220000012,104.39924510000037,105.38251920000039,3.0158214999992197,106.56879950000075,"[300, 300]",[0.24537037037037038],[0.25833333333333336],[1],[0],[0],[1.185410199999751],[1],['target_find'],106.57012230000055,107.58348500000011,,,,,,,,,,,,,,,,,,,,,,,,,,,,,,,,088980,001,2023-11-06_13h05.06.519,Selektive Wahrnehmung,2023.2.3,59.925991400636754,2023-11-06 13h06.27.901853 +0100,
gesicht2,0,12,12,9,,,,,107.63250680000056,,,,,,,,,,107.58407940000052,107.63250680000056,109.63253200000054,110.61577860000034,3.03237850000005,112.05083800000011,"[300, 300]",[0.25],[0.2953703703703704],[1],[0],[0],[1.434383799999523],[1],['target_find'],112.05164890000015,113.06566509999993,,,,,,,,,,,,,,,,,,,,,,,,,,,,,,,,088980,001,2023-11-06_13h05.06.519,Selektive Wahrnehmung,2023.2.3,59.925991400636754,2023-11-06 13h06.27.901853 +0100,
gesicht1,0,13,13,8,,,,,113.10201810000035,,,,,,,,,,113.06592570000066,113.10201810000035,115.11670970000068,116.08211840000058,3.0165622000004078,117.00167360000069,"[-300, -300]",[-0.29444444444444445],[-0.2712962962962963],[1],[0],[0],[0.9187056999999186],[1],['target_find'],117.0027598000006,118.01628770000025,,,,,,,,,,,,,,,,,,,,,,,,,,,,,,,,088980,001,2023-11-06_13h05.06.519,Selektive Wahrnehmung,2023.2.3,59.925991400636754,2023-11-06 13h06.27.901853 +0100,
gesicht4,0,14,14,11,,,,,118.06529810000029,,,,,,,,,,118.01689179999994,118.06529810000029,120.06532229999993,121.0482832000007,2.9990803999999116,121.54962880000039,"[0, -300]",[-0.05555555555555555],[-0.2064814814814815],[1],[0],[0],[0.5333498999998483],[1],['target_find'],121.55012740000075,122.56732890000058,,,,,,,,,,,,,,,,,,,,,,,,,,,,,,,,088980,001,2023-11-06_13h05.06.519,Selektive Wahrnehmung,2023.2.3,59.925991400636754,2023-11-06 13h06.27.901853 +0100,
gesicht3,0,15,15,10,,,,,122.61807350000072,,,,,,,,,,122.56785760000002,122.61807350000072,124.63311800000065,125.59839610000017,3.031150499999967,126.13550400000076,"[0, -300]",[0.028703703703703703],[-0.21851851851851853],[1],[0],[0],[0.5362027000001035],[1],['target_find'],126.13678960000016,127.14905970000018,,,,,,,,,,,,,,,,,,,,,,,,,,,,,,,,088980,001,2023-11-06_13h05.06.519,Selektive Wahrnehmung,2023.2.3,59.925991400636754,2023-11-06 13h06.27.901853 +0100,
zug1,1,0,16,15,,,,,127.18168220000007,,,,,,,,,,127.14955750000081,127.18168220000007,129.18161650000002,130.16482160000032,3.0158514999993713,131.03386840000076,"[-300, 300]",[-0.15092592592592594],[0.22314814814814815],[1],[0],[0],[0.8682300999998915],[1],['target_find'],131.0350109000001,132.05064130000028,,,,,,,,,,,,,,,,,,,,,,,,,,,,,,,,088980,001,2023-11-06_13h05.06.519,Selektive Wahrnehmung,2023.2.3,59.925991400636754,2023-11-06 13h06.27.901853 +0100,
spinne2,1,1,17,1,,,,,132.26608430000033,,,,,,,,,,132.05152380000072,132.26608430000033,134.28133770000022,135.08128130000023,3.0307030999993003,135.98414860000048,"[300, 0]",[0.15648148148148147],[-0.032407407407407406],[1],[0],[0],[0.9020936000006259],[1],['target_find'],135.98529010000038,136.99939970000014,,,,,,,,,,,,,,,,,,,,,,,,,,,,,,,,088980,001,2023-11-06_13h05.06.519,Selektive Wahrnehmung,2023.2.3,59.925991400636754,2023-11-06 13h06.27.901853 +0100,
auto1,1,2,18,12,,,,,137.06418639999993,,,,,,,,,,137.00026470000012,137.06418639999993,139.0642144000003,140.06764300000032,3.0683122999998886,140.80118070000026,"[300, -300]",[0.20925925925925926],[-0.21574074074074073],[1],[0],[0],[0.7325695999998061],[1],['target_find'],140.8024931,141.81445150000036,,,,,,,,,,,,,,,,,,,,,,,,,,,,,,,,088980,001,2023-11-06_13h05.06.519,Selektive Wahrnehmung,2023.2.3,59.925991400636754,2023-11-06 13h06.27.901853 +0100,
person2,1,3,19,5,,,,,141.84750600000007,,,,,,,,,,141.8146867000005,141.84750600000007,143.84767640000064,144.83084790000066,3.016492200000357,145.63386179999998,"[300, 300]",[0.3972222222222222],[0.3175925925925926],[1],[0],[0],[0.8021139000002222],[1],['target_find'],145.63500100000056,146.64868730000035,,,,,,,,,,,,,,,,,,,,,,,,,,,,,,,,088980,001,2023-11-06_13h05.06.519,Selektive Wahrnehmung,2023.2.3,59.925991400636754,2023-11-06 13h06.27.901853 +0100,
gesicht2,1,4,20,9,,,,,146.6808699000003,,,,,,,,,,146.64947790000042,146.6808699000003,148.68191070000012,149.68072930000017,3.032111000000441,150.31678210000064,"[300, -300]",[0.1824074074074074],[-0.18703703703703703],[1],[0],[0],[0.635249300000396],[1],['target_find'],150.3178458000002,151.33194400000048,,,,,,,,,,,,,,,,,,,,,,,,,,,,,,,,088980,001,2023-11-06_13h05.06.519,Selektive Wahrnehmung,2023.2.3,59.925991400636754,2023-11-06 13h06.27.901853 +0100,
gesicht4,1,5,21,11,,,,,151.3806443000003,,,,,,,,,,151.33269010000004,151.3806443000003,153.38053050000053,154.36381190000066,3.031933800000843,155.28297800000018,"[-300, -300]",[-0.3592592592592593],[-0.30092592592592593],[1],[0],[0],[0.9182892999997421],[1],['target_find'],155.28390149999996,156.29881670000032,,,,,,,,,,,,,,,,,,,,,,,,,,,,,,,,088980,001,2023-11-06_13h05.06.519,Selektive Wahrnehmung,2023.2.3,59.925991400636754,2023-11-06 13h06.27.901853 +0100,
person1,1,6,22,4,,,,,156.33368300000075,,,,,,,,,,156.29939520000062,156.33368300000075,158.34821340000053,159.33046680000007,3.0317329999998037,160.53371080000034,"[300, -300]",[0.17407407407407408],[-0.25462962962962965],[1],[0],[0],[1.20231479999984],[1],['target_find'],160.53509620000023,161.5477922,,,,,,,,,,,,,,,,,,,,,,,,,,,,,,,,088980,001,2023-11-06_13h05.06.519,Selektive Wahrnehmung,2023.2.3,59.925991400636754,2023-11-06 13h06.27.901853 +0100,
gesicht1,1,7,23,8,,,,,161.58026490000066,,,,,,,,,,161.54840380000041,161.58026490000066,163.58017520000067,164.5802072000006,2.9991001999997025,165.23276030000034,"[300, -300]",[0.1638888888888889],[-0.2712962962962963],[1],[0],[0],[0.6848024999999325],[1],['target_find'],165.23391580000043,166.24788160000026,,,,,,,,,,,,,,,,,,,,,,,,,,,,,,,,088980,001,2023-11-06_13h05.06.519,Selektive Wahrnehmung,2023.2.3,59.925991400636754,2023-11-06 13h06.27.901853 +0100,
schlange1,1,8,24,2,,,,,166.2832711000001,,,,,,,,,,166.2483798000003,166.2832711000001,168.29765279999992,169.27997190000042,3.0321874999999636,169.79978759999995,"[0, -300]",[-0.004629629629629629],[-0.18796296296296297],[1],[0],[0],[0.5189082000006238],[1],['target_find'],169.80108999999993,170.8141809000008,,,,,,,,,,,,,,,,,,,,,,,,,,,,,,,,088980,001,2023-11-06_13h05.06.519,Selektive Wahrnehmung,2023.2.3,59.925991400636754,2023-11-06 13h06.27.901853 +0100,
gesicht3,1,9,25,10,,,,,170.86314700000003,,,,,,,,,,170.81479650000074,170.86314700000003,172.86308120000012,173.86299730000064,3.0489051999993535,174.68248949999997,"[300, 300]",[0.2972222222222222],[0.30925925925925923],[1],[0],[0],[0.8185534000003827],[1],['target_find'],174.68387690000054,175.69898690000082,,,,,,,,,,,,,,,,,,,,,,,,,,,,,,,,088980,001,2023-11-06_13h05.06.519,Selektive Wahrnehmung,2023.2.3,59.925991400636754,2023-11-06 13h06.27.901853 +0100,
flugzeug1,1,10,26,13,,,,,175.74929750000047,,,,,,,,,,175.69993850000083,175.74929750000047,177.7641981000006,178.7294184000002,3.030472600000394,179.34972480000033,"[300, -300]",[0.27685185185185185],[-0.2796296296296296],[1],[0],[0],[0.6198213000006945],[1],['target_find'],179.35024300000077,180.36343660000057,,,,,,,,,,,,,,,,,,,,,,,,,,,,,,,,088980,001,2023-11-06_13h05.06.519,Selektive Wahrnehmung,2023.2.3,59.925991400636754,2023-11-06 13h06.27.901853 +0100,
gruppe1,1,11,27,6,,,,,180.3961319,,,,,,,,,,180.3639359000008,180.3961319,182.3961807000005,183.37892200000078,3.0155469000001176,184.43206630000077,"[-300, -300]",[-0.19444444444444445],[-0.23148148148148148],[1],[0],[0],[1.0523671000000832],[1],['target_find'],184.43321259999993,185.44822420000037,,,,,,,,,,,,,,,,,,,,,,,,,,,,,,,,088980,001,2023-11-06_13h05.06.519,Selektive Wahrnehmung,2023.2.3,59.925991400636754,2023-11-06 13h06.27.901853 +0100,
schlange2,1,12,28,3,,,,,185.4988768000003,,,,,,,,,,185.44920660000025,185.4988768000003,187.51330020000023,188.49587490000067,3.0479119999999966,189.6818873000002,"[-300, 300]",[-0.225],[0.18611111111111112],[1],[0],[0],[1.1848223999995753],[1],['target_find'],189.68328569999994,190.69643200000064,,,,,,,,,,,,,,,,,,,,,,,,,,,,,,,,088980,001,2023-11-06_13h05.06.519,Selektive Wahrnehmung,2023.2.3,59.925991400636754,2023-11-06 13h06.27.901853 +0100,
spinne1,1,13,29,0,,,,,190.72886460000063,,,,,,,,,,190.69686120000006,190.72886460000063,192.7288595,193.7290339000001,3.032885399999941,195.64808420000008,"[-300, -300]",[-0.2638888888888889],[-0.21481481481481482],[1],[0],[0],[1.9180471000008765],[1],['target_find'],195.6490614000004,196.66392720000022,,,,,,,,,,,,,,,,,,,,,,,,,,,,,,,,088980,001,2023-11-06_13h05.06.519,Selektive Wahrnehmung,2023.2.3,59.925991400636754,2023-11-06 13h06.27.901853 +0100,
schiff1,1,14,30,14,,,,,196.69847710000067,,,,,,,,,,196.66442910000023,196.69847710000067,198.71200490000047,199.69539070000064,3.0315451999995275,200.69905010000002,"[0, 300]",[-0.04537037037037037],[0.2962962962962963],[1],[0],[0],[1.0027403000003687],[1],['target_find'],200.70045280000068,201.71267270000044,,,,,,,,,,,,,,,,,,,,,,,,,,,,,,,,088980,001,2023-11-06_13h05.06.519,Selektive Wahrnehmung,2023.2.3,59.925991400636754,2023-11-06 13h06.27.901853 +0100,
gruppe2,1,15,31,7,,,,,201.74508570000035,,,,,,,,,,201.71314970000003,201.74508570000035,203.7451828000003,204.7284877000002,3.015894400000434,205.61551980000058,"[300, 300]",[0.15925925925925927],[0.4083333333333333],[1],[0],[0],[0.8860572000003231],[1],['target_find'],205.61691810000048,206.62952700000005,,,,,,,,,,,,,,,,,,,,,,,,,,,,,,,,088980,001,2023-11-06_13h05.06.519,Selektive Wahrnehmung,2023.2.3,59.925991400636754,2023-11-06 13h06.27.901853 +0100,
gesicht2,2,0,32,9,,,,,206.68136159999995,,,,,,,,,,206.6301224000008,206.68136159999995,208.6960435000001,209.64492020000034,3.0155351000003066,210.61493820000032,"[300, 300]",[0.17407407407407408],[0.26851851851851855],[1],[0],[0],[0.968954500000109],[1],['target_find'],210.61621170000035,211.6288308000003,,,,,,,,,,,,,,,,,,,,,,,,,,,,,,,,088980,001,2023-11-06_13h05.06.519,Selektive Wahrnehmung,2023.2.3,59.925991400636754,2023-11-06 13h06.27.901853 +0100,
schlange2,2,1,33,3,,,,,211.66150950000065,,,,,,,,,,211.6293286,211.66150950000065,213.66147100000035,214.64477390000047,3.016039200000705,216.39618130000053,"[-300, -300]",[-0.22407407407407406],[-0.2212962962962963],[1],[0],[0],[1.750861200000145],[1],['target_find'],216.39671950000047,217.41327180000008,,,,,,,,,,,,,,,,,,,,,,,,,,,,,,,,088980,001,2023-11-06_13h05.06.519,Selektive Wahrnehmung,2023.2.3,59.925991400636754,2023-11-06 13h06.27.901853 +0100,
auto1,2,2,34,12,,,,,217.48093150000022,,,,,,,,,,217.41405920000034,217.48093150000022,219.4957142000003,220.46109790000082,2.999036299999716,221.84692730000006,"[0, 300]",[0.041666666666666664],[0.26944444444444443],[1],[0],[0],[1.4334994000000734],[1],['target_find'],221.84807030000047,222.86185250000017,,,,,,,,,,,,,,,,,,,,,,,,,,,,,,,,088980,001,2023-11-06_13h05.06.519,Selektive Wahrnehmung,2023.2.3,59.925991400636754,2023-11-06 13h06.27.901853 +0100,
spinne2,2,3,35,1,,,,,223.0439823000006,,,,,,,,,,222.8623574000003,223.0439823000006,225.04393789999995,225.9110341000005,3.049406600000111,226.63075340000069,"[0, -300]",[-0.03425925925925926],[-0.21851851851851853],[1],[0],[0],[0.7186660999996093],[1],['target_find'],226.63192250000066,227.64618530000007,,,,,,,,,,,,,,,,,,,,,,,,,,,,,,,,088980,001,2023-11-06_13h05.06.519,Selektive Wahrnehmung,2023.2.3,59.925991400636754,2023-11-06 13h06.27.901853 +0100,
schlange1,2,4,36,2,,,,,227.71062840000013,,,,,,,,,,227.6469689000005,227.71062840000013,229.71197800000027,230.7275053000003,2.9992867000000842,231.4969847000002,"[300, 300]",[0.1361111111111111],[0.2518518518518518],[1],[0],[0],[0.8503733999996257],[0],['dis3'],231.49809170000026,232.5113848000001,,,,,,,,,,,,,,,,,,,,,,,,,,,,,,,,088980,001,2023-11-06_13h05.06.519,Selektive Wahrnehmung,2023.2.3,59.925991400636754,2023-11-06 13h06.27.901853 +0100,
person2,2,5,37,5,,,,,232.56029200000012,,,,,,,,,,232.5121482000004,232.56029200000012,234.56068340000002,235.54375170000003,3.032435400000395,236.21322690000034,"[300, 0]",[0.20925925925925926],[-0.017592592592592594],[1],[0],[0],[0.6686890999999378],[1],['target_find'],236.21438600000056,237.22799980000036,,,,,,,,,,,,,,,,,,,,,,,,,,,,,,,,088980,001,2023-11-06_13h05.06.519,Selektive Wahrnehmung,2023.2.3,59.925991400636754,2023-11-06 13h06.27.901853 +0100,
schiff1,2,6,38,14,,,,,237.26341450000018,,,,,,,,,,237.22844740000073,237.26341450000018,239.27708190000067,240.26045000000067,3.032744599999205,240.9303649000003,"[-300, 0]",[-0.19722222222222222],[0.020370370370370372],[1],[0],[0],[0.6688211000000592],[1],['target_find'],240.9315273000002,241.94397260000005,,,,,,,,,,,,,,,,,,,,,,,,,,,,,,,,088980,001,2023-11-06_13h05.06.519,Selektive Wahrnehmung,2023.2.3,59.925991400636754,2023-11-06 13h06.27.901853 +0100,
zug1,2,7,39,15,,,,,241.97695629999998,,,,,,,,,,241.94425560000036,241.97695629999998,243.97683310000048,244.9601487,3.016273199999887,245.8975543000006,"[-300, 300]",[-0.27870370370370373],[0.2657407407407407],[1],[0],[0],[0.9361084000001938],[1],['target_find'],245.8996605000002,246.9110907000004,,,,,,,,,,,,,,,,,,,,,,,,,,,,,,,,088980,001,2023-11-06_13h05.06.519,Selektive Wahrnehmung,2023.2.3,59.925991400636754,2023-11-06 13h06.27.901853 +0100,
gruppe1,2,8,40,6,,,,,246.94658450000043,,,,,,,,,,246.9116128000005,246.94658450000043,248.95987250000053,249.94324620000043,3.0322455000004993,250.5632703000001,"[-300, 0]",[-0.19814814814814816],[0.04537037037037037],[1],[0],[0],[0.6191224000003785],[1],['target_find'],250.56465910000043,251.57762750000074,,,,,,,,,,,,,,,,,,,,,,,,,,,,,,,,088980,001,2023-11-06_13h05.06.519,Selektive Wahrnehmung,2023.2.3,59.925991400636754,2023-11-06 13h06.27.901853 +0100,
gruppe2,2,9,41,7,,,,,251.61285190000035,,,,,,,,,,251.57814469999994,251.61285190000035,253.62770530000034,254.5930844000004,3.015653100000236,255.7288268000002,"[300, -300]",[0.3416666666666667],[-0.33055555555555555],[1],[0],[0],[1.1348713999996107],[1],['target_find'],255.72982240000056,256.74377410000034,,,,,,,,,,,,,,,,,,,,,,,,,,,,,,,,088980,001,2023-11-06_13h05.06.519,Selektive Wahrnehmung,2023.2.3,59.925991400636754,2023-11-06 13h06.27.901853 +0100,
flugzeug1,2,10,42,13,,,,,256.7928081,,,,,,,,,,256.7442888000005,256.7928081,258.79285770000024,259.7760321000005,3.0323347000003196,260.89429420000033,"[0, 300]",[0.003703703703703704],[0.3138888888888889],[1],[0],[0],[1.1177521999998135],[1],['target_find'],260.89478130000043,261.9115257000003,,,,,,,,,,,,,,,,,,,,,,,,,,,,,,,,088980,001,2023-11-06_13h05.06.519,Selektive Wahrnehmung,2023.2.3,59.925991400636754,2023-11-06 13h06.27.901853 +0100,
spinne1,2,11,43,0,,,,,261.9625898000004,,,,,,,,,,261.9120965000002,261.9625898000004,263.9766402000005,264.9439302999999,3.032487000000401,265.96253700000034,"[300, -300]",[0.2212962962962963],[-0.19907407407407407],[1],[0],[0],[1.017697400000543],[1],['target_find'],265.96387200000026,266.9763212000007,,,,,,,,,,,,,,,,,,,,,,,,,,,,,,,,088980,001,2023-11-06_13h05.06.519,Selektive Wahrnehmung,2023.2.3,59.925991400636754,2023-11-06 13h06.27.901853 +0100,
gesicht4,2,12,44,11,,,,,267.0122921000002,,,,,,,,,,266.9765922000006,267.0122921000002,269.02709550000054,270.0092250000007,3.033245999999963,270.7282380000006,"[300, -300]",[0.21481481481481482],[-0.18796296296296297],[1],[0],[0],[0.7178877000005741],[1],['target_find'],270.7293821000003,271.7434013000002,,,,,,,,,,,,,,,,,,,,,,,,,,,,,,,,088980,001,2023-11-06_13h05.06.519,Selektive Wahrnehmung,2023.2.3,59.925991400636754,2023-11-06 13h06.27.901853 +0100,
person1,2,13,45,4,,,,,271.7923387000001,,,,,,,,,,271.74414760000036,271.7923387000001,273.7923287000003,274.7752982000002,3.0319656000001487,275.4447209,"[300, -300]",[0.21574074074074073],[-0.24722222222222223],[1],[0],[0],[0.6686957000001712],[1],['target_find'],275.4456478000002,276.4607175000001,,,,,,,,,,,,,,,,,,,,,,,,,,,,,,,,088980,001,2023-11-06_13h05.06.519,Selektive Wahrnehmung,2023.2.3,59.925991400636754,2023-11-06 13h06.27.901853 +0100,
gesicht3,2,14,46,10,,,,,276.4953067000006,,,,,,,,,,276.4613543000005,276.4953067000006,278.5093725000006,279.4921836000003,3.031546000000162,280.41183739999997,"[300, 300]",[0.1935185185185185],[0.25],[1],[0],[0],[0.918752300000051],[1],['target_find'],280.41323400000056,281.4263806000008,,,,,,,,,,,,,,,,,,,,,,,,,,,,,,,,088980,001,2023-11-06_13h05.06.519,Selektive Wahrnehmung,2023.2.3,59.925991400636754,2023-11-06 13h06.27.901853 +0100,
gesicht1,2,15,47,8,,,,,281.4752260000005,,,,,,,,,,281.42697060000046,281.4752260000005,283.47518540000056,284.4585552000008,3.032446600000185,285.0764158000002,"[300, -300]",[0.16944444444444445],[-0.2833333333333333],[1],[0],[0],[0.6170925000005809],[1],['target_find'],285.0769106000007,286.09349100000054,,,,,,,,,,,,,,,,,,,,,,,,,,,,,,,,088980,001,2023-11-06_13h05.06.519,Selektive Wahrnehmung,2023.2.3,59.925991400636754,2023-11-06 13h06.27.901853 +0100,
person1,3,0,48,4,,,,,286.12834290000046,,,,,,,,,,286.0939115000001,286.12834290000046,288.14269910000075,289.1247718000004,2.9992569999994885,289.77761940000073,"[0, -300]",[-0.005555555555555556],[-0.17592592592592593],[1],[0],[0],[0.6839159999999538],[1],['target_find'],289.7789206000007,290.79221810000035,,,,,,,,,,,,,,,,,,,,,,,,,,,,,,,,088980,001,2023-11-06_13h05.06.519,Selektive Wahrnehmung,2023.2.3,59.925991400636754,2023-11-06 13h06.27.901853 +0100,
auto1,3,1,49,12,,,,,290.8249256000008,,,,,,,,,,290.7927156000005,290.8249256000008,292.8247605000006,293.8246573000006,3.0325142000001506,295.4948486000003,"[-300, -300]",[-0.26481481481481484],[-0.21574074074074073],[1],[0],[0],[1.6692707000001974],[1],['target_find'],295.49622679999993,296.50868750000063,,,,,,,,,,,,,,,,,,,,,,,,,,,,,,,,088980,001,2023-11-06_13h05.06.519,Selektive Wahrnehmung,2023.2.3,59.925991400636754,2023-11-06 13h06.27.901853 +0100,
person2,3,2,50,5,,,,,296.5611073,,,,,,,,,,296.50918249999995,296.5611073,298.5756456000008,299.5412227000006,3.032603399999971,300.0934350000007,"[300, -300]",[0.18055555555555555],[-0.25555555555555554],[1],[0],[0],[0.5514136000001599],[1],['target_find'],300.0945799000001,301.1080690000008,,,,,,,,,,,,,,,,,,,,,,,,,,,,,,,,088980,001,2023-11-06_13h05.06.519,Selektive Wahrnehmung,2023.2.3,59.925991400636754,2023-11-06 13h06.27.901853 +0100,
spinne1,3,3,51,0,,,,,301.1410429000007,,,,,,,,,,301.1083441999999,301.1410429000007,303.1406355000008,304.12419690000024,3.0162157999993724,305.07595650000076,"[300, 0]",[0.15648148148148147],[-0.014814814814814815],[1],[0],[0],[0.9513280999999552],[1],['target_find'],305.0764575000003,306.09298970000054,,,,,,,,,,,,,,,,,,,,,,,,,,,,,,,,088980,001,2023-11-06_13h05.06.519,Selektive Wahrnehmung,2023.2.3,59.925991400636754,2023-11-06 13h06.27.901853 +0100,
gruppe2,3,4,52,7,,,,,306.14374430000044,,,,,,,,,,306.0935347000004,306.14374430000044,308.1585212,309.1240196000008,2.9990662999998676,309.8268472,"[300, -300]",[0.17962962962962964],[-0.24722222222222223],[1],[0],[0],[0.7337365000003047],[1],['target_find'],309.8281362000007,310.8410450000001,,,,,,,,,,,,,,,,,,,,,,,,,,,,,,,,088980,001,2023-11-06_13h05.06.519,Selektive Wahrnehmung,2023.2.3,59.925991400636754,2023-11-06 13h06.27.901853 +0100,
schlange1,3,5,53,2,,,,,310.8739065,,,,,,,,,,310.8413874000007,310.8739065,312.87396270000045,313.85692390000077,3.0159644000004846,314.5084334000003,"[-300, 0]",[-0.24074074074074073],[-0.025],[1],[0],[0],[0.6510017999999036],[1],['target_find'],314.50893200000064,315.52562600000056,,,,,,,,,,,,,,,,,,,,,,,,,,,,,,,,088980,001,2023-11-06_13h05.06.519,Selektive Wahrnehmung,2023.2.3,59.925991400636754,2023-11-06 13h06.27.901853 +0100,
gruppe1,3,6,54,6,,,,,315.56010420000075,,,,,,,,,,315.52588900000046,315.56010420000075,317.57374640000035,318.5567153000002,3.0311651000001802,319.32477780000045,"[300, -300]",[0.2574074074074074],[-0.28055555555555556],[1],[0],[0],[0.7675736000001052],[1],['target_find'],319.3252420000008,320.3414474000001,,,,,,,,,,,,,,,,,,,,,,,,,,,,,,,,088980,001,2023-11-06_13h05.06.519,Selektive Wahrnehmung,2023.2.3,59.925991400636754,2023-11-06 13h06.27.901853 +0100,
flugzeug1,3,7,55,13,,,,,320.40697870000076,,,,,,,,,,320.3421861000006,320.40697870000076,322.4069304000004,323.3732045000006,3.031807299999855,324.3927029000006,"[-300, -300]",[-0.20925925925925926],[-0.24074074074074073],[1],[0],[0],[1.0187316000001374],[1],['target_find'],324.3938427000003,325.4090533000008,,,,,,,,,,,,,,,,,,,,,,,,,,,,,,,,088980,001,2023-11-06_13h05.06.519,Selektive Wahrnehmung,2023.2.3,59.925991400636754,2023-11-06 13h06.27.901853 +0100,
gesicht4,3,8,56,11,,,,,325.47629230000075,,,,,,,,,,325.40999830000055,325.47629230000075,327.4913034000001,328.45653519999996,3.047693100000288,329.25971970000046,"[300, 300]",[0.2361111111111111],[0.20555555555555555],[1],[0],[0],[0.8021751999995104],[1],['target_find'],329.2608983,330.2739072000004,,,,,,,,,,,,,,,,,,,,,,,,,,,,,,,,088980,001,2023-11-06_13h05.06.519,Selektive Wahrnehmung,2023.2.3,59.925991400636754,2023-11-06 13h06.27.901853 +0100,
gesicht2,3,9,57,9,,,,,330.32312249999995,,,,,,,,,,330.2744147000003,330.32312249999995,332.3231614000006,333.2895466,3.015713499999947,333.9584805000004,"[-300, 0]",[-0.1824074074074074],[-0.02962962962962963],[1],[0],[0],[0.6682012000001123],[1],['target_find'],333.9593573000002,334.9737167000003,,,,,,,,,,,,,,,,,,,,,,,,,,,,,,,,088980,001,2023-11-06_13h05.06.519,Selektive Wahrnehmung,2023.2.3,59.925991400636754,2023-11-06 13h06.27.901853 +0100,
schlange2,3,10,58,3,,,,,335.0061474000004,,,,,,,,,,334.97422860000006,335.0061474000004,337.0061276000006,337.98957530000007,3.015943399999742,339.3086544000007,"[-300, 300]",[-0.19074074074074074],[0.32407407407407407],[1],[0],[0],[1.318339399999786],[1],['target_find'],339.3096467000005,340.3235452000008,,,,,,,,,,,,,,,,,,,,,,,,,,,,,,,,088980,001,2023-11-06_13h05.06.519,Selektive Wahrnehmung,2023.2.3,59.925991400636754,2023-11-06 13h06.27.901853 +0100,
gesicht3,3,11,59,10,,,,,340.37266330000057,,,,,,,,,,340.3240837000003,340.37266330000057,342.37340660000064,343.35621420000007,3.0328844999994544,344.2761586000006,"[-300, 0]",[-0.21666666666666667],[-0.06296296296296296],[1],[0],[0],[0.9189360000000306],[1],['target_find'],344.2772939000006,345.29162990000077,,,,,,,,,,,,,,,,,,,,,,,,,,,,,,,,088980,001,2023-11-06_13h05.06.519,Selektive Wahrnehmung,2023.2.3,59.925991400636754,2023-11-06 13h06.27.901853 +0100,
zug1,3,12,60,15,,,,,345.32388270000047,,,,,,,,,,345.2922372000003,345.32388270000047,347.3238076000007,348.34034020000036,3.0489848999995957,349.2411924000007,"[0, 300]",[-0.017592592592592594],[0.20185185185185187],[1],[0],[0],[0.8998568999995769],[1],['target_find'],349.2421714000002,350.25662700000066,,,,,,,,,,,,,,,,,,,,,,,,,,,,,,,,088980,001,2023-11-06_13h05.06.519,Selektive Wahrnehmung,2023.2.3,59.925991400636754,2023-11-06 13h06.27.901853 +0100,
schiff1,3,13,61,14,,,,,350.3057023000001,,,,,,,,,,350.2571970000008,350.3057023000001,352.3056357000005,353.3057355000001,2.9991488999994544,354.2073351000008,"[-300, 0]",[-0.1824074074074074],[-0.04722222222222222],[1],[0],[0],[0.9505136999996466],[1],['target_find'],354.20805569999993,355.22403360000044,,,,,,,,,,,,,,,,,,,,,,,,,,,,,,,,088980,001,2023-11-06_13h05.06.519,Selektive Wahrnehmung,2023.2.3,59.925991400636754,2023-11-06 13h06.27.901853 +0100,
gesicht1,3,14,62,8,,,,,355.2586031999999,,,,,,,,,,355.2244845000005,355.2586031999999,357.272559,358.2555121000005,3.031572199999573,358.95815550000043,"[300, -300]",[0.2361111111111111],[-0.1935185185185185],[1],[0],[0],[0.7017079000006561],[1],['target_find'],358.9595680000002,359.9726268000004,,,,,,,,,,,,,,,,,,,,,,,,,,,,,,,,088980,001,2023-11-06_13h05.06.519,Selektive Wahrnehmung,2023.2.3,59.925991400636754,2023-11-06 13h06.27.901853 +0100,
spinne2,3,15,63,1,,,,,360.15515529999993,,,,,,,,,,359.9731126000006,360.15515529999993,362.15521850000005,363.00526119999995,3.0329690999997183,363.7396010000002,"[-300, 0]",[-0.3296296296296296],[0.003703703703703704],[1],[0],[0],[0.733476200000041],[1],['target_find'],363.74009710000064,364.7569970000004,,,,,,,,,,,,,,,,,,,,,,,,,,,,,,,,088980,001,2023-11-06_13h05.06.519,Selektive Wahrnehmung,2023.2.3,59.925991400636754,2023-11-06 13h06.27.901853 +0100,
auto1,4,0,64,12,,,,,364.83977050000067,,,,,,,,,,364.75748660000045,364.83977050000067,366.8563045000001,367.8217972000002,3.064942500000143,369.0726538000008,"[300, 0]",[0.22962962962962963],[-0.003703703703703704],[1],[0],[0],[1.250267299999905],[1],['target_find'],369.0731657000006,370.0888351000003,,,,,,,,,,,,,,,,,,,,,,,,,,,,,,,,088980,001,2023-11-06_13h05.06.519,Selektive Wahrnehmung,2023.2.3,59.925991400636754,2023-11-06 13h06.27.901853 +0100,
gruppe2,4,1,65,7,,,,,370.1378844999999,,,,,,,,,,370.0893351000004,370.1378844999999,372.13800489999994,373.1212262000008,2.999135099999876,374.1412571999999,"[300, -300]",[0.24722222222222223],[-0.287962962962963],[1],[0],[0],[1.0526721000005637],[1],['target_find'],374.1417814000006,375.1566545000005,,,,,,,,,,,,,,,,,,,,,,,,,,,,,,,,088980,001,2023-11-06_13h05.06.519,Selektive Wahrnehmung,2023.2.3,59.925991400636754,2023-11-06 13h06.27.901853 +0100,
spinne2,4,2,66,1,,,,,375.3559466000006,,,,,,,,,,375.1571601000005,375.3559466000006,377.3726366000001,378.1877587000008,3.0311805999999706,379.42360330000065,"[0, 300]",[-0.03518518518518519],[0.25555555555555554],[1],[0],[0],[1.2351294000000053],[1],['target_find'],379.4245795000006,380.43838490000053,,,,,,,,,,,,,,,,,,,,,,,,,,,,,,,,088980,001,2023-11-06_13h05.06.519,Selektive Wahrnehmung,2023.2.3,59.925991400636754,2023-11-06 13h06.27.901853 +0100,
schlange1,4,3,67,2,,,,,380.5042723000006,,,,,,,,,,380.4388675,380.5042723000006,382.50423110000065,383.4872998000001,3.0489737000007153,384.34027200000037,"[-300, -300]",[-0.22037037037037038],[-0.2518518518518518],[1],[0],[0],[0.8521171000002141],[1],['target_find'],384.3414319000003,385.35559470000044,,,,,,,,,,,,,,,,,,,,,,,,,,,,,,,,088980,001,2023-11-06_13h05.06.519,Selektive Wahrnehmung,2023.2.3,59.925991400636754,2023-11-06 13h06.27.901853 +0100,
zug1,4,4,68,15,,,,,385.40745550000065,,,,,,,,,,385.35608180000054,385.40745550000065,387.4221771000002,388.38759389999996,3.0320752000006905,389.50601730000017,"[300, 300]",[0.337037037037037],[0.29259259259259257],[1],[0],[0],[1.1177514000000883],[1],['target_find'],389.50690699999996,390.52269090000027,,,,,,,,,,,,,,,,,,,,,,,,,,,,,,,,088980,001,2023-11-06_13h05.06.519,Selektive Wahrnehmung,2023.2.3,59.925991400636754,2023-11-06 13h06.27.901853 +0100,
gesicht2,4,5,69,9,,,,,390.5884960000003,,,,,,,,,,390.5232760000008,390.5884960000003,392.5873252000001,393.55402180000056,3.0314078000001246,394.2418303000004,"[0, 300]",[-0.03796296296296296],[0.25],[1],[0],[0],[0.686342599999989],[1],['target_find'],394.2439398000006,395.2550839000005,,,,,,,,,,,,,,,,,,,,,,,,,,,,,,,,088980,001,2023-11-06_13h05.06.519,Selektive Wahrnehmung,2023.2.3,59.925991400636754,2023-11-06 13h06.27.901853 +0100,
gesicht3,4,6,70,10,,,,,395.2903831000003,,,,,,,,,,395.25582830000076,395.2903831000003,397.30498140000054,398.2703349000003,3.0153194000004078,398.95452790000036,"[300, -300]",[0.23055555555555557],[-0.18425925925925926],[1],[0],[0],[0.6836746999997558],[1],['target_find'],398.95513720000054,399.9712922000008,,,,,,,,,,,,,,,,,,,,,,,,,,,,,,,,088980,001,2023-11-06_13h05.06.519,Selektive Wahrnehmung,2023.2.3,59.925991400636754,2023-11-06 13h06.27.901853 +0100,
gesicht4,4,7,71,11,,,,,400.02016080000067,,,,,,,,,,399.9719408000001,400.02016080000067,402.02027,403.00340099999994,3.032197300000007,403.70682320000014,"[300, -300]",[0.22962962962962963],[-0.2175925925925926],[1],[0],[0],[0.7024933999991845],[1],['target_find'],403.70820060000005,404.72163550000005,,,,,,,,,,,,,,,,,,,,,,,,,,,,,,,,088980,001,2023-11-06_13h05.06.519,Selektive Wahrnehmung,2023.2.3,59.925991400636754,2023-11-06 13h06.27.901853 +0100,
schlange2,4,8,72,3,,,,,404.78801569999996,,,,,,,,,,404.72249590000047,404.78801569999996,406.8046165000005,407.7532933000002,3.0317324999996345,410.0733708000007,"[-300, -300]",[-0.20555555555555555],[-0.325],[1],[0],[0],[2.3191765999999916],[1],['target_find'],410.07469840000067,411.0868648000005,,,,,,,,,,,,,,,,,,,,,,,,,,,,,,,,088980,001,2023-11-06_13h05.06.519,Selektive Wahrnehmung,2023.2.3,59.925991400636754,2023-11-06 13h06.27.901853 +0100,
flugzeug1,4,9,73,13,,,,,411.1198303000001,,,,,,,,,,411.0871380000008,411.1198303000001,413.1195688000007,414.1028089000001,3.016009899999517,415.1042797,"[300, 300]",[0.2518518518518518],[0.38055555555555554],[1],[0],[0],[1.0010013000000981],[1],['target_find'],415.1047999000002,416.1195841000008,,,,,,,,,,,,,,,,,,,,,,,,,,,,,,,,088980,001,2023-11-06_13h05.06.519,Selektive Wahrnehmung,2023.2.3,59.925991400636754,2023-11-06 13h06.27.901853 +0100,
person2,4,10,74,5,,,,,416.15252370000053,,,,,,,,,,416.11991060000037,416.15252370000053,418.1528433000003,419.13576510000075,3.016267599999992,419.8057183000001,"[-300, 0]",[-0.18611111111111112],[-0.041666666666666664],[1],[0],[0],[0.6691165000002002],[1],['target_find'],419.8068249000007,420.82044399999995,,,,,,,,,,,,,,,,,,,,,,,,,,,,,,,,088980,001,2023-11-06_13h05.06.519,Selektive Wahrnehmung,2023.2.3,59.925991400636754,2023-11-06 13h06.27.901853 +0100,
gesicht1,4,11,75,8,,,,,420.8558133000006,,,,,,,,,,420.8210001000007,420.8558133000006,422.8697394999999,423.85239770000044,3.0320087000000058,424.4552884000004,"[0, -300]",[-0.06574074074074074],[-0.19537037037037036],[1],[0],[0],[0.6021079000001919],[1],['target_find'],424.4565838000008,425.47041870000066,,,,,,,,,,,,,,,,,,,,,,,,,,,,,,,,088980,001,2023-11-06_13h05.06.519,Selektive Wahrnehmung,2023.2.3,59.925991400636754,2023-11-06 13h06.27.901853 +0100,
schiff1,4,12,76,14,,,,,425.5191896000006,,,,,,,,,,425.4711906000002,425.5191896000006,427.51914770000076,428.5024704000007,3.0323411999997916,429.2056867000001,"[-300, 0]",[-0.262037037037037],[-0.018518518518518517],[1],[0],[0],[0.702002399999401],[1],['target_find'],429.2070779000005,430.2199448000001,,,,,,,,,,,,,,,,,,,,,,,,,,,,,,,,088980,001,2023-11-06_13h05.06.519,Selektive Wahrnehmung,2023.2.3,59.925991400636754,2023-11-06 13h06.27.901853 +0100,
gruppe1,4,13,77,6,,,,,430.25223110000024,,,,,,,,,,430.2205182000007,430.25223110000024,432.25225260000025,433.23533940000016,3.015455099999599,434.25408210000023,"[300, -300]",[0.18888888888888888],[-0.2064814814814815],[1],[0],[0],[1.018078300000525],[1],['target_find'],434.2550192000008,435.26997870000014,,,,,,,,,,,,,,,,,,,,,,,,,,,,,,,,088980,001,2023-11-06_13h05.06.519,Selektive Wahrnehmung,2023.2.3,59.925991400636754,2023-11-06 13h06.27.901853 +0100,
person1,4,14,78,4,,,,,435.3019581000008,,,,,,,,,,435.27073890000065,435.3019581000008,437.30324370000017,438.3021757000006,3.032478500000252,439.2220496,"[0, 300]",[-0.018518518518518517],[0.35185185185185186],[1],[0],[0],[0.918675699999767],[1],['target_find'],439.2234109000001,440.23598820000007,,,,,,,,,,,,,,,,,,,,,,,,,,,,,,,,088980,001,2023-11-06_13h05.06.519,Selektive Wahrnehmung,2023.2.3,59.925991400636754,2023-11-06 13h06.27.901853 +0100,
spinne1,4,15,79,0,,,,,440.28509100000065,,,,,,,,,,440.23650290000023,440.28509100000065,442.2851817999999,443.2683704000001,3.032460400000673,444.4048866000003,"[300, 0]",[0.17222222222222222],[0.017592592592592594],[1],[0],[0],[1.1357915000007779],[1],['target_find'],444.40595290000056,445.4198281000008,,,,,,,,,,,,,,,,,,,,,,,,,,,,,,,,088980,001,2023-11-06_13h05.06.519,Selektive Wahrnehmung,2023.2.3,59.925991400636754,2023-11-06 13h06.27.901853 +0100,
,,,,,0,0,0,0,451.3209915000007,,,,,,,,,,,,,,,,,,,,,,,,,,,445.4472018000006,448.02087780000056,448.0209098000005,451.23868610000045,451.24004930000046,461.27616260000013,3.0,1.0,flugzeug1,,,,,,,,,,,,,,,,,,,,,,,088980,001,2023-11-06_13h05.06.519,Selektive Wahrnehmung,2023.2.3,59.925991400636754,2023-11-06 13h06.27.901853 +0100,
,,,,,1,0,1,0,461.3372640000007,,,,,,,,,,,,,,,,,,,,,,,,,,,,,,,461.2765326000008,473.3092789000002,1.0,1.0,gesicht4,,,,,,,,,,,,,,,,,,,,,,,088980,001,2023-11-06_13h05.06.519,Selektive Wahrnehmung,2023.2.3,59.925991400636754,2023-11-06 13h06.27.901853 +0100,
,,,,,2,0,2,0,473.3534730000001,,,,,,,,,,,,,,,,,,,,,,,,,,,,,,,473.30959390000044,479.55876030000036,1.0,5.0,schiff1,,,,,,,,,,,,,,,,,,,,,,,088980,001,2023-11-06_13h05.06.519,Selektive Wahrnehmung,2023.2.3,59.925991400636754,2023-11-06 13h06.27.901853 +0100,
,,,,,3,0,3,0,479.61978910000016,,,,,,,,,,,,,,,,,,,,,,,,,,,,,,,479.55906480000067,486.9251954000001,2.0,1.0,gruppe1,,,,,,,,,,,,,,,,,,,,,,,088980,001,2023-11-06_13h05.06.519,Selektive Wahrnehmung,2023.2.3,59.925991400636754,2023-11-06 13h06.27.901853 +0100,
,,,,,4,0,4,0,486.9694681000001,,,,,,,,,,,,,,,,,,,,,,,,,,,,,,,486.9255137,493.74147940000057,1.0,4.0,schlange2,,,,,,,,,,,,,,,,,,,,,,,088980,001,2023-11-06_13h05.06.519,Selektive Wahrnehmung,2023.2.3,59.925991400636754,2023-11-06 13h06.27.901853 +0100,
,,,,,,,,,,,,,,,,,,,,,,,,,,,,,,,,,,,,,,,,,,,,,493.84271179999996,500.15211850000014, 20 ,1.0,500.15213680000033,510.3234086000002,1.0,1.0,510.3234269000004,512.4178141000002,512.4178351,528.8758435,1.0,4.0,5.0,1.0,528.8758755000008,537.4232715000007,2.0,3.0,537.4232934000001,539.2171345000006,,,,,,,,
