Target,trials.thisRepN,trials.thisTrialN,trials.thisN,trials.thisIndex,trials_2.thisRepN,trials_2.thisTrialN,trials_2.thisN,trials_2.thisIndex,thisRow.t,notes,Data_transparency.started,key_resp_data_transp.started,Data_transparency.stopped,key_resp_data_transp.keys,key_resp_data_transp.rt,key_resp_data_transp.duration,instructions.started,instructions.stopped,trial.started,target_show.started,target_show.stopped,target_find.started,mouse.started,trial.stopped,target_position_x_y,mouse.x,mouse.y,mouse.leftButton,mouse.midButton,mouse.rightButton,mouse.time,mouse.corr,mouse.clicked_name,feedback.started,feedback.stopped,instructions_survey.started,instructions_survey.stopped,instructions_ratings.started,instructions_ratings.stopped,survey_ratings.started,survey_ratings.stopped,furcht.response,liebenswert.response,rated_image,survey_gen.started,survey_gen.stopped,age.text,gender.response,survey_games.started,survey_games.stopped,pc_frequency.response,reaction_games_frequency.response,instructions_neuro.started,instructions_neuro.stopped,survey_neuro.started,survey_neuro.stopped,neuro_1_rev.response,neuro_2.response,neuro_3.response,neuro_4_rev.response,survey_fear.started,survey_fear.stopped,specific_fear_spider.response,specific_fear_snake.response,thanks.started,thanks.stopped,participant,session,date,expName,psychopyVersion,frameRate,expStart,
,,,,,,,,,,,0.02416509995236993,0.040692000184208155,28.24041510000825,z,28.165159299969673,None,,,,,,,,,,,,,,,,,,,,,,,,,,,,,,,,,,,,,,,,,,,,,,,,,,,094115,001,2023-11-13_13h40.16.508,Selektive Wahrnehmung,2023.2.3,59.95829305673547,2023-11-13 14h01.46.745651 +0100,
,,,,,,,,,,,,,,,,,28.240457800216973,269.52813230035827,,,,,,,,,,,,,,,,,,,,,,,,,,,,,,,,,,,,,,,,,,,,,,,,,094115,001,2023-11-13_13h40.16.508,Selektive Wahrnehmung,2023.2.3,59.95829305673547,2023-11-13 14h01.46.745651 +0100,
gesicht1,0,0,0,8,,,,,269.5790348001756,,,,,,,,,,269.5389024000615,269.5790348001756,271.59378300001845,272.5437593003735,3.0157008999958634,274.0618768003769,"[-300, 300]",[-0.29074074074074074],[0.27314814814814814],[1],[0],[0],[1.5173013997264206],[1],['target_find'],274.06423240015283,275.0760067999363,,,,,,,,,,,,,,,,,,,,,,,,,,,,,,,,094115,001,2023-11-13_13h40.16.508,Selektive Wahrnehmung,2023.2.3,59.95829305673547,2023-11-13 14h01.46.745651 +0100,
person2,0,1,1,5,,,,,275.11202140012756,,,,,,,,,,275.0762571999803,275.11202140012756,277.12533099995926,278.0922413999215,3.016338899731636,279.1108416002244,"[-300, 0]",[-0.24814814814814815],[-0.016666666666666666],[1],[0],[0],[1.0178943001665175],[1],['target_find'],279.11178410006687,280.1265193000436,,,,,,,,,,,,,,,,,,,,,,,,,,,,,,,,094115,001,2023-11-13_13h40.16.508,Selektive Wahrnehmung,2023.2.3,59.95829305673547,2023-11-13 14h01.46.745651 +0100,
zug1,0,2,2,15,,,,,280.17553130025044,,,,,,,,,,280.12724100006744,280.17553130025044,282.1753862001933,283.1587336999364,3.0322996000759304,284.244877200108,"[-300, -300]",[-0.2935185185185185],[-0.30277777777777776],[1],[0],[0],[1.0852873995900154],[1],['target_find'],284.24604460038245,285.25962360017,,,,,,,,,,,,,,,,,,,,,,,,,,,,,,,,094115,001,2023-11-13_13h40.16.508,Selektive Wahrnehmung,2023.2.3,59.95829305673547,2023-11-13 14h01.46.745651 +0100,
schlange2,0,3,3,3,,,,,285.3118933001533,,,,,,,,,,285.26024750014767,285.3118933001533,287.32520140009,288.29174609994516,3.032200800254941,289.8776245000772,"[300, 0]",[0.33055555555555555],[-0.06018518518518518],[1],[0],[0],[1.5850939000956714],[1],['target_find'],289.8786002001725,290.8919609002769,,,,,,,,,,,,,,,,,,,,,,,,,,,,,,,,094115,001,2023-11-13_13h40.16.508,Selektive Wahrnehmung,2023.2.3,59.95829305673547,2023-11-13 14h01.46.745651 +0100,
gesicht2,0,4,4,9,,,,,291.0249022003263,,,,,,,,,,290.8924302002415,291.0249022003263,293.0249129002914,293.92485720012337,3.0329841999337077,295.04283880023286,"[0, 300]",[0.001851851851851852],[0.3398148148148148],[1],[0],[0],[1.117488100193441],[1],['target_find'],295.043361000251,296.0597635000013,,,,,,,,,,,,,,,,,,,,,,,,,,,,,,,,094115,001,2023-11-13_13h40.16.508,Selektive Wahrnehmung,2023.2.3,59.95829305673547,2023-11-13 14h01.46.745651 +0100,
spinne1,0,5,5,0,,,,,296.1109758000821,,,,,,,,,,296.06036410015076,296.1109758000821,298.12589130038396,299.1442992002703,3.084592300001532,300.5602466999553,"[300, -300]",[0.2740740740740741],[-0.24444444444444444],[1],[0],[0],[1.4152325997129083],[1],['target_find'],300.5611507999711,301.57549310009927,,,,,,,,,,,,,,,,,,,,,,,,,,,,,,,,094115,001,2023-11-13_13h40.16.508,Selektive Wahrnehmung,2023.2.3,59.95829305673547,2023-11-13 14h01.46.745651 +0100,
gruppe1,0,6,6,6,,,,,301.6077319001779,,,,,,,,,,301.5760051002726,301.6077319001779,303.6077172001824,304.60790950013325,2.999206299893558,305.96070219995454,"[-300, 0]",[-0.31203703703703706],[0.04814814814814815],[1],[0],[0],[1.384806000161916],[1],['target_find'],305.96186270006,306.97649980010465,,,,,,,,,,,,,,,,,,,,,,,,,,,,,,,,094115,001,2023-11-13_13h40.16.508,Selektive Wahrnehmung,2023.2.3,59.95829305673547,2023-11-13 14h01.46.745651 +0100,
schlange1,0,7,7,2,,,,,307.0257848999463,,,,,,,,,,306.9770055003464,307.0257848999463,309.02537960000336,309.9910065000877,3.0145955998450518,310.84198429994285,"[-300, -300]",[-0.2972222222222222],[-0.31574074074074077],[1],[0],[0],[0.8504995000548661],[1],['target_find'],310.84249950014055,311.8587112999521,,,,,,,,,,,,,,,,,,,,,,,,,,,,,,,,094115,001,2023-11-13_13h40.16.508,Selektive Wahrnehmung,2023.2.3,59.95829305673547,2023-11-13 14h01.46.745651 +0100,
gesicht3,0,8,8,10,,,,,311.9071412002668,,,,,,,,,,311.85946290008724,311.9071412002668,313.90725870011374,314.89052380016074,3.031985899899155,315.8084337003529,"[-300, 300]",[-0.3416666666666667],[0.25092592592592594],[1],[0],[0],[0.917280999943614],[1],['target_find'],315.8089141002856,316.82520490000024,,,,,,,,,,,,,,,,,,,,,,,,,,,,,,,,094115,001,2023-11-13_13h40.16.508,Selektive Wahrnehmung,2023.2.3,59.95829305673547,2023-11-13 14h01.46.745651 +0100,
auto1,0,9,9,12,,,,,316.95990819996223,,,,,,,,,,316.82544289994985,316.95990819996223,318.9751202999614,319.8570685000159,3.031955699902028,320.89386750012636,"[-300, 0]",[-0.2796296296296296],[0.10277777777777777],[1],[0],[0],[1.0358385001309216],[1],['target_find'],320.8954451000318,321.9077284000814,,,,,,,,,,,,,,,,,,,,,,,,,,,,,,,,094115,001,2023-11-13_13h40.16.508,Selektive Wahrnehmung,2023.2.3,59.95829305673547,2023-11-13 14h01.46.745651 +0100,
gesicht4,0,10,10,11,,,,,321.94003130029887,,,,,,,,,,321.9081755001098,321.94003130029887,323.94026309996843,324.95676860027015,3.0491352998651564,325.6928143003024,"[-300, -300]",[-0.2833333333333333],[-0.31851851851851853],[1],[0],[0],[0.7353644999675453],[1],['target_find'],325.69370699999854,326.70814180001616,,,,,,,,,,,,,,,,,,,,,,,,,,,,,,,,094115,001,2023-11-13_13h40.16.508,Selektive Wahrnehmung,2023.2.3,59.95829305673547,2023-11-13 14h01.46.745651 +0100,
person1,0,11,11,4,,,,,326.7600622000173,,,,,,,,,,326.7089035003446,326.7600622000173,328.77428520005196,329.7414350002073,3.0334956999868155,330.47505920007825,"[300, 300]",[0.26666666666666666],[0.28055555555555556],[1],[0],[0],[0.7328916997648776],[1],['target_find'],330.47562859999016,331.490871200338,,,,,,,,,,,,,,,,,,,,,,,,,,,,,,,,094115,001,2023-11-13_13h40.16.508,Selektive Wahrnehmung,2023.2.3,59.95829305673547,2023-11-13 14h01.46.745651 +0100,
spinne2,0,12,12,1,,,,,331.6897865002975,,,,,,,,,,331.4915461000055,331.6897865002975,333.6896798000671,334.53990299999714,3.0492222998291254,335.20785050000995,"[0, 300]",[-0.006481481481481481],[0.2212962962962963],[1],[0],[0],[0.6671682000160217],[1],['target_find'],335.20850310008973,336.22376980027184,,,,,,,,,,,,,,,,,,,,,,,,,,,,,,,,094115,001,2023-11-13_13h40.16.508,Selektive Wahrnehmung,2023.2.3,59.95829305673547,2023-11-13 14h01.46.745651 +0100,
gruppe2,0,13,13,7,,,,,336.30757200019434,,,,,,,,,,336.2243115999736,336.30757200019434,338.30766830034554,339.2727842000313,3.0491031003184617,340.1753539000638,"[0, -300]",[0.05555555555555555],[-0.2916666666666667],[1],[0],[0],[0.9017362999729812],[1],['target_find'],340.17651619995013,341.189882799983,,,,,,,,,,,,,,,,,,,,,,,,,,,,,,,,094115,001,2023-11-13_13h40.16.508,Selektive Wahrnehmung,2023.2.3,59.95829305673547,2023-11-13 14h01.46.745651 +0100,
flugzeug1,0,14,14,13,,,,,341.22275170031935,,,,,,,,,,341.1901543000713,341.22275170031935,343.2227209000848,344.2225379999727,3.0327421999536455,345.27563450019807,"[-300, 0]",[-0.22592592592592592],[-0.05277777777777778],[1],[0],[0],[1.052260100375861],[1],['target_find'],345.27680020034313,346.2906087003648,,,,,,,,,,,,,,,,,,,,,,,,,,,,,,,,094115,001,2023-11-13_13h40.16.508,Selektive Wahrnehmung,2023.2.3,59.95829305673547,2023-11-13 14h01.46.745651 +0100,
schiff1,0,15,15,14,,,,,346.32568980008364,,,,,,,,,,346.2911983001977,346.32568980008364,348.3405158999376,349.3056838000193,3.0151366000063717,350.5568933002651,"[300, -300]",[0.275],[-0.2518518518518518],[1],[0],[0],[1.250729599967599],[1],['target_find'],350.55737410020083,351.57266549998894,,,,,,,,,,,,,,,,,,,,,,,,,,,,,,,,094115,001,2023-11-13_13h40.16.508,Selektive Wahrnehmung,2023.2.3,59.95829305673547,2023-11-13 14h01.46.745651 +0100,
flugzeug1,1,0,16,13,,,,,351.6054676999338,,,,,,,,,,351.57314860029146,351.6054676999338,353.6055521001108,354.6056796000339,3.033238200005144,355.4423643001355,"[0, 300]",[-0.03333333333333333],[0.1574074074074074],[1],[0],[0],[0.8357669999822974],[1],['target_find'],355.44327680021524,356.4573934003711,,,,,,,,,,,,,,,,,,,,,,,,,,,,,,,,094115,001,2023-11-13_13h40.16.508,Selektive Wahrnehmung,2023.2.3,59.95829305673547,2023-11-13 14h01.46.745651 +0100,
person1,1,1,17,4,,,,,356.5084641999565,,,,,,,,,,356.4581777001731,356.5084641999565,358.5232140002772,359.48876460036263,3.031454499810934,360.2250304003246,"[-300, 300]",[-0.27314814814814814],[0.21944444444444444],[1],[0],[0],[0.7357658999972045],[1],['target_find'],360.2255520001054,361.2398458002135,,,,,,,,,,,,,,,,,,,,,,,,,,,,,,,,094115,001,2023-11-13_13h40.16.508,Selektive Wahrnehmung,2023.2.3,59.95829305673547,2023-11-13 14h01.46.745651 +0100,
spinne2,1,2,18,1,,,,,361.4384988001548,,,,,,,,,,361.24059210019186,361.4384988001548,363.4385474999435,364.2884305003099,3.048666500020772,365.10809120023623,"[300, 300]",[0.1685185185185185],[0.2712962962962963],[1],[0],[0],[0.8188483999110758],[1],['target_find'],365.10924190003425,366.12346540018916,,,,,,,,,,,,,,,,,,,,,,,,,,,,,,,,094115,001,2023-11-13_13h40.16.508,Selektive Wahrnehmung,2023.2.3,59.95829305673547,2023-11-13 14h01.46.745651 +0100,
gesicht2,1,3,19,9,,,,,366.20625840034336,,,,,,,,,,366.12395340017974,366.20625840034336,368.2063132999465,369.1729337000288,3.0495922002010047,369.8587106000632,"[-300, -300]",[-0.3453703703703704],[-0.30833333333333335],[1],[0],[0],[0.684882199857384],[1],['target_find'],369.8599236002192,370.8725396003574,,,,,,,,,,,,,,,,,,,,,,,,,,,,,,,,094115,001,2023-11-13_13h40.16.508,Selektive Wahrnehmung,2023.2.3,59.95829305673547,2023-11-13 14h01.46.745651 +0100,
gesicht3,1,4,20,10,,,,,370.9049006002024,,,,,,,,,,370.87329290015623,370.9049006002024,372.90482280030847,373.90474370028824,3.0324089000932872,374.8075968003832,"[300, 0]",[0.4],[-0.021296296296296296],[1],[0],[0],[0.9017519000917673],[1],['target_find'],374.8089950000867,375.82364260032773,,,,,,,,,,,,,,,,,,,,,,,,,,,,,,,,094115,001,2023-11-13_13h40.16.508,Selektive Wahrnehmung,2023.2.3,59.95829305673547,2023-11-13 14h01.46.745651 +0100,
gruppe2,1,5,21,7,,,,,375.87446069996804,,,,,,,,,,375.8242792999372,375.87446069996804,377.88919960008934,378.85425940016285,3.0306740002706647,380.2090532002039,"[300, 0]",[0.32037037037037036],[0.014814814814814815],[1],[0],[0],[1.3540183999575675],[1],['target_find'],380.2101891003549,381.2216491000727,,,,,,,,,,,,,,,,,,,,,,,,,,,,,,,,094115,001,2023-11-13_13h40.16.508,Selektive Wahrnehmung,2023.2.3,59.95829305673547,2023-11-13 14h01.46.745651 +0100,
schlange1,1,6,22,2,,,,,381.2542771003209,,,,,,,,,,381.2220701002516,381.2542771003209,383.25428079999983,384.2375602000393,3.0161206000484526,384.974159500096,"[-300, 0]",[-0.21203703703703702],[-0.004629629629629629],[1],[0],[0],[0.7356824004091322],[1],['target_find'],384.97512960014865,385.9896221002564,,,,,,,,,,,,,,,,,,,,,,,,,,,,,,,,094115,001,2023-11-13_13h40.16.508,Selektive Wahrnehmung,2023.2.3,59.95829305673547,2023-11-13 14h01.46.745651 +0100,
spinne1,1,7,23,0,,,,,386.0219706003554,,,,,,,,,,385.9901403002441,386.0219706003554,388.02216270007193,389.0209274003282,3.0313972998410463,389.890486900229,"[-300, -300]",[-0.12222222222222222],[-0.25],[1],[0],[0],[0.8686295999214053],[0],['dis5'],389.8919111001305,390.9047465999611,,,,,,,,,,,,,,,,,,,,,,,,,,,,,,,,094115,001,2023-11-13_13h40.16.508,Selektive Wahrnehmung,2023.2.3,59.95829305673547,2023-11-13 14h01.46.745651 +0100,
gesicht4,1,8,24,11,,,,,390.93725540023297,,,,,,,,,,390.9052475001663,390.93725540023297,392.9372196001932,393.92056210013106,3.0159411998465657,394.9063220000826,"[0, 300]",[0.03148148148148148],[0.35462962962962963],[1],[0],[0],[0.9851935999467969],[1],['target_find'],394.906804300379,395.9219002001919,,,,,,,,,,,,,,,,,,,,,,,,,,,,,,,,094115,001,2023-11-13_13h40.16.508,Selektive Wahrnehmung,2023.2.3,59.95829305673547,2023-11-13 14h01.46.745651 +0100,
schiff1,1,9,25,14,,,,,395.97367120021954,,,,,,,,,,395.9223964000121,395.97367120021954,397.9884262001142,398.9369280003011,3.0152006996795535,399.9897624999285,"[0, 300]",[-0.005555555555555556],[0.2824074074074074],[1],[0],[0],[1.0520234000869095],[1],['target_find'],399.99054040014744,401.00427590031177,,,,,,,,,,,,,,,,,,,,,,,,,,,,,,,,094115,001,2023-11-13_13h40.16.508,Selektive Wahrnehmung,2023.2.3,59.95829305673547,2023-11-13 14h01.46.745651 +0100,
person2,1,10,26,5,,,,,401.0367693002336,,,,,,,,,,401.0047801001929,401.0367693002336,403.03674710029736,404.0200037001632,3.015811199788004,404.7892642002553,"[-300, 300]",[-0.3055555555555556],[0.25925925925925924],[1],[0],[0],[0.7684759004041553],[1],['target_find'],404.7904141000472,405.80590960010886,,,,,,,,,,,,,,,,,,,,,,,,,,,,,,,,094115,001,2023-11-13_13h40.16.508,Selektive Wahrnehmung,2023.2.3,59.95829305673547,2023-11-13 14h01.46.745651 +0100,
schlange2,1,11,27,3,,,,,405.85638729995117,,,,,,,,,,405.80668530007824,405.85638729995117,407.8700315002352,408.83630180032924,3.0304477997124195,410.20658680005,"[300, 0]",[0.33425925925925926],[0.04722222222222222],[1],[0],[0],[1.3693360001780093],[1],['target_find'],410.20800020033494,411.2203567000106,,,,,,,,,,,,,,,,,,,,,,,,,,,,,,,,094115,001,2023-11-13_13h40.16.508,Selektive Wahrnehmung,2023.2.3,59.95829305673547,2023-11-13 14h01.46.745651 +0100,
auto1,1,12,28,12,,,,,411.25322860013694,,,,,,,,,,411.22072550002486,411.25322860013694,413.25301260035485,414.2529049003497,3.0326570998877287,415.7561791003682,"[300, -300]",[0.275],[-0.2796296296296296],[1],[0],[0],[1.502421600278467],[1],['target_find'],415.75724690034986,416.7702498999424,,,,,,,,,,,,,,,,,,,,,,,,,,,,,,,,094115,001,2023-11-13_13h40.16.508,Selektive Wahrnehmung,2023.2.3,59.95829305673547,2023-11-13 14h01.46.745651 +0100,
gruppe1,1,13,29,6,,,,,416.81946759996936,,,,,,,,,,416.77068980038166,416.81946759996936,418.8195599000901,419.7859749002382,3.0158144999295473,420.7217697002925,"[-300, -300]",[-0.24259259259259258],[-0.20277777777777778],[1],[0],[0],[0.9349022000096738],[1],['target_find'],420.723193500191,421.73754180036485,,,,,,,,,,,,,,,,,,,,,,,,,,,,,,,,094115,001,2023-11-13_13h40.16.508,Selektive Wahrnehmung,2023.2.3,59.95829305673547,2023-11-13 14h01.46.745651 +0100,
gesicht1,1,14,30,8,,,,,421.7724365000613,,,,,,,,,,421.737807800062,421.7724365000613,423.787075500004,424.7527640000917,3.015461599919945,425.65627680020407,"[-300, 300]",[-0.2814814814814815],[0.20185185185185187],[1],[0],[0],[0.9024943998083472],[1],['target_find'],425.657588200178,426.67137930030003,,,,,,,,,,,,,,,,,,,,,,,,,,,,,,,,094115,001,2023-11-13_13h40.16.508,Selektive Wahrnehmung,2023.2.3,59.95829305673547,2023-11-13 14h01.46.745651 +0100,
zug1,1,15,31,15,,,,,426.72208390012383,,,,,,,,,,426.6719861002639,426.72208390012383,428.73677690001205,429.7024338999763,2.999013800173998,430.60801460035145,"[-300, 0]",[-0.3074074074074074],[-0.000925925925925926],[1],[0],[0],[0.9362600999884307],[1],['target_find'],430.6093363002874,431.6212087003514,,,,,,,,,,,,,,,,,,,,,,,,,,,,,,,,094115,001,2023-11-13_13h40.16.508,Selektive Wahrnehmung,2023.2.3,59.95829305673547,2023-11-13 14h01.46.745651 +0100,
gruppe2,2,0,32,7,,,,,431.6534441001713,,,,,,,,,,431.6218290999532,431.6534441001713,433.653413800057,434.65180190000683,3.0306536997668445,435.6055181999691,"[300, 0]",[0.2777777777777778],[0.01574074074074074],[1],[0],[0],[0.9529267000034451],[1],['target_find'],435.60665800003335,436.6195527999662,,,,,,,,,,,,,,,,,,,,,,,,,,,,,,,,094115,001,2023-11-13_13h40.16.508,Selektive Wahrnehmung,2023.2.3,59.95829305673547,2023-11-13 14h01.46.745651 +0100,
gesicht4,2,1,33,11,,,,,436.6684674001299,,,,,,,,,,436.6201464999467,436.6684674001299,438.66850610030815,439.65182090038434,2.9990165000781417,440.48630829993635,"[0, 300]",[-0.03981481481481482],[0.2351851851851852],[1],[0],[0],[0.8668585997074842],[1],['target_find'],440.48683609999716,441.50329239992425,,,,,,,,,,,,,,,,,,,,,,,,,,,,,,,,094115,001,2023-11-13_13h40.16.508,Selektive Wahrnehmung,2023.2.3,59.95829305673547,2023-11-13 14h01.46.745651 +0100,
schlange2,2,2,34,3,,,,,441.53820630023256,,,,,,,,,,441.5039206999354,441.53820630023256,443.5528033999726,444.53503820020705,3.0318272998556495,445.6384367002174,"[300, -300]",[0.26944444444444443],[-0.24259259259259258],[1],[0],[0],[1.102461100090295],[1],['target_find'],445.63982379995286,446.6522773001343,,,,,,,,,,,,,,,,,,,,,,,,,,,,,,,,094115,001,2023-11-13_13h40.16.508,Selektive Wahrnehmung,2023.2.3,59.95829305673547,2023-11-13 14h01.46.745651 +0100,
zug1,2,3,35,15,,,,,446.6848315000534,,,,,,,,,,446.6527312002145,446.6848315000534,448.6849040002562,449.6680312999524,3.015966100152582,450.7048867000267,"[300, 300]",[0.2490740740740741],[0.34629629629629627],[1],[0],[0],[1.0359152001328766],[1],['target_find'],450.7059313999489,451.71894810022786,,,,,,,,,,,,,,,,,,,,,,,,,,,,,,,,094115,001,2023-11-13_13h40.16.508,Selektive Wahrnehmung,2023.2.3,59.95829305673547,2023-11-13 14h01.46.745651 +0100,
spinne1,2,4,36,0,,,,,451.77115719998255,,,,,,,,,,451.71953170001507,451.77115719998255,453.7858009999618,454.7524512000382,3.033590500243008,455.83802710007876,"[0, -300]",[-0.019444444444444445],[-0.3592592592592593],[1],[0],[0],[1.0847494998015463],[1],['target_find'],455.8391101001762,456.8519659000449,,,,,,,,,,,,,,,,,,,,,,,,,,,,,,,,094115,001,2023-11-13_13h40.16.508,Selektive Wahrnehmung,2023.2.3,59.95829305673547,2023-11-13 14h01.46.745651 +0100,
schlange1,2,5,37,2,,,,,456.884306400083,,,,,,,,,,456.8524746000767,456.884306400083,458.88434750027955,459.8843568000011,2.999174099881202,461.12117750011384,"[-300, -300]",[-0.30833333333333335],[-0.23148148148148148],[1],[0],[0],[1.2687766999006271],[1],['target_find'],461.12232750002295,462.13526460016146,,,,,,,,,,,,,,,,,,,,,,,,,,,,,,,,094115,001,2023-11-13_13h40.16.508,Selektive Wahrnehmung,2023.2.3,59.95829305673547,2023-11-13 14h01.46.745651 +0100,
gesicht1,2,6,38,8,,,,,462.17066900013015,,,,,,,,,,462.1357655003667,462.17066900013015,464.18546710023656,465.150371900294,3.0151709001511335,466.28707200009376,"[300, 300]",[0.38425925925925924],[0.3453703703703704],[1],[0],[0],[1.1359190000221133],[1],['target_find'],466.2882322999649,467.3015376999974,,,,,,,,,,,,,,,,,,,,,,,,,,,,,,,,094115,001,2023-11-13_13h40.16.508,Selektive Wahrnehmung,2023.2.3,59.95829305673547,2023-11-13 14h01.46.745651 +0100,
person2,2,7,39,5,,,,,467.3505806000903,,,,,,,,,,467.3021329003386,467.3505806000903,469.350413300097,470.333851700183,2.99901570007205,471.08656050032005,"[300, 300]",[0.3888888888888889],[0.25],[1],[0],[0],[0.7849092003889382],[1],['target_find'],471.0877984999679,472.10168790025637,,,,,,,,,,,,,,,,,,,,,,,,,,,,,,,,094115,001,2023-11-13_13h40.16.508,Selektive Wahrnehmung,2023.2.3,59.95829305673547,2023-11-13 14h01.46.745651 +0100,
person1,2,8,40,4,,,,,472.1533200000413,,,,,,,,,,472.1021949001588,472.1533200000413,474.1683954000473,475.11712840013206,3.0155254998244345,475.93813499994576,"[-300, 0]",[-0.29074074074074074],[-0.028703703703703703],[1],[0],[0],[0.8200904000550508],[1],['target_find'],475.93954219995067,476.95122410031036,,,,,,,,,,,,,,,,,,,,,,,,,,,,,,,,094115,001,2023-11-13_13h40.16.508,Selektive Wahrnehmung,2023.2.3,59.95829305673547,2023-11-13 14h01.46.745651 +0100,
flugzeug1,2,9,41,13,,,,,477.0002055000514,,,,,,,,,,476.9518368002027,477.0002055000514,479.00008690031245,479.98317040037364,3.0320271998643875,480.9192894003354,"[-300, 300]",[-0.2935185185185185],[0.25833333333333336],[1],[0],[0],[0.9353270996361971],[1],['target_find'],480.9204322001897,481.93476580036804,,,,,,,,,,,,,,,,,,,,,,,,,,,,,,,,094115,001,2023-11-13_13h40.16.508,Selektive Wahrnehmung,2023.2.3,59.95829305673547,2023-11-13 14h01.46.745651 +0100,
auto1,2,10,42,12,,,,,481.9862536001019,,,,,,,,,,481.93537810025737,481.9862536001019,483.9999287999235,484.94988299999386,3.0152040999382734,485.7677968000062,"[-300, 0]",[-0.19907407407407407],[-0.025925925925925925],[1],[0],[0],[0.8173505999147892],[1],['target_find'],485.76833170000464,486.7840007003397,,,,,,,,,,,,,,,,,,,,,,,,,,,,,,,,094115,001,2023-11-13_13h40.16.508,Selektive Wahrnehmung,2023.2.3,59.95829305673547,2023-11-13 14h01.46.745651 +0100,
gesicht2,2,11,43,9,,,,,486.8164650001563,,,,,,,,,,486.784576700069,486.8164650001563,488.81629119999707,489.81607099995017,2.9991537001915276,490.77013040008023,"[-300, -300]",[-0.2814814814814815],[-0.18518518518518517],[1],[0],[0],[0.9860355998389423],[1],['target_find'],490.77065900014713,491.7844531000592,,,,,,,,,,,,,,,,,,,,,,,,,,,,,,,,094115,001,2023-11-13_13h40.16.508,Selektive Wahrnehmung,2023.2.3,59.95829305673547,2023-11-13 14h01.46.745651 +0100,
gesicht3,2,12,44,10,,,,,491.83596369996667,,,,,,,,,,491.7849616003223,491.83596369996667,493.850158800371,494.79909150023013,3.01475500036031,495.63669480010867,"[300, 0]",[0.34074074074074073],[-0.001851851851851852],[1],[0],[0],[0.8366266996599734],[1],['target_find'],495.63798960018903,496.65022230008617,,,,,,,,,,,,,,,,,,,,,,,,,,,,,,,,094115,001,2023-11-13_13h40.16.508,Selektive Wahrnehmung,2023.2.3,59.95829305673547,2023-11-13 14h01.46.745651 +0100,
gruppe1,2,13,45,6,,,,,496.69929950032383,,,,,,,,,,496.65083110006526,496.69929950032383,498.69898970006034,499.6657668002881,3.015639299992472,500.51855480019003,"[300, 0]",[0.3175925925925926],[-0.012962962962962963],[1],[0],[0],[0.8519707997329533],[1],['target_find'],500.5196985001676,501.5335548003204,,,,,,,,,,,,,,,,,,,,,,,,,,,,,,,,094115,001,2023-11-13_13h40.16.508,Selektive Wahrnehmung,2023.2.3,59.95829305673547,2023-11-13 14h01.46.745651 +0100,
schiff1,2,14,46,14,,,,,501.56878900015727,,,,,,,,,,501.5341703002341,501.56878900015727,503.58308190014213,504.549148300197,3.0158222001045942,505.5668039000593,"[-300, -300]",[-0.3416666666666667],[-0.22777777777777777],[1],[0],[0],[1.0169208999723196],[1],['target_find'],505.5673386999406,506.58286740025505,,,,,,,,,,,,,,,,,,,,,,,,,,,,,,,,094115,001,2023-11-13_13h40.16.508,Selektive Wahrnehmung,2023.2.3,59.95829305673547,2023-11-13 14h01.46.745651 +0100,
spinne2,2,15,47,1,,,,,506.7821537000127,,,,,,,,,,506.5832533002831,506.7821537000127,508.7818757002242,509.61547000007704,3.032688499893993,510.7508970000781,"[-300, -300]",[-0.2953703703703704],[-0.3425925925925926],[1],[0],[0],[1.1347652999684215],[1],['target_find'],510.751706100069,511.76618889998645,,,,,,,,,,,,,,,,,,,,,,,,,,,,,,,,094115,001,2023-11-13_13h40.16.508,Selektive Wahrnehmung,2023.2.3,59.95829305673547,2023-11-13 14h01.46.745651 +0100,
schlange2,3,0,48,3,,,,,511.8685620999895,,,,,,,,,,511.7667057001963,511.8685620999895,513.8831689003855,514.8318982999772,3.0657895002514124,516.2514128000475,"[300, 300]",[0.3416666666666667],[0.23148148148148148],[1],[0],[0],[1.4187110997736454],[1],['target_find'],516.2525642002001,517.266499500256,,,,,,,,,,,,,,,,,,,,,,,,,,,,,,,,094115,001,2023-11-13_13h40.16.508,Selektive Wahrnehmung,2023.2.3,59.95829305673547,2023-11-13 14h01.46.745651 +0100,
person1,3,1,49,4,,,,,517.2983206999488,,,,,,,,,,517.267261700239,517.2983206999488,519.2984345001169,520.2984123001806,3.032122800126672,521.5505240000784,"[-300, -300]",[-0.24166666666666667],[-0.21666666666666667],[1],[0],[0],[1.2511303997598588],[1],['target_find'],521.5515823001042,522.5658701001666,,,,,,,,,,,,,,,,,,,,,,,,,,,,,,,,094115,001,2023-11-13_13h40.16.508,Selektive Wahrnehmung,2023.2.3,59.95829305673547,2023-11-13 14h01.46.745651 +0100,
spinne2,3,2,50,1,,,,,522.7826408999972,,,,,,,,,,522.5661565000191,522.7826408999972,524.7816320001148,525.5982103999704,3.032581400126219,526.5668129003607,"[300, 0]",[0.3314814814814815],[-0.03611111111111111],[1],[0],[0],[0.9679038999602199],[1],['target_find'],526.5673442999832,527.5818934999406,,,,,,,,,,,,,,,,,,,,,,,,,,,,,,,,094115,001,2023-11-13_13h40.16.508,Selektive Wahrnehmung,2023.2.3,59.95829305673547,2023-11-13 14h01.46.745651 +0100,
flugzeug1,3,3,51,13,,,,,527.6478820000775,,,,,,,,,,527.5821899003349,527.6478820000775,529.6478631002828,530.6312013003044,3.0494007002562284,531.6001174002886,"[-300, 0]",[-0.2777777777777778],[-0.030555555555555555],[1],[0],[0],[0.9681147998198867],[1],['target_find'],531.6011747000739,532.6153506999835,,,,,,,,,,,,,,,,,,,,,,,,,,,,,,,,094115,001,2023-11-13_13h40.16.508,Selektive Wahrnehmung,2023.2.3,59.95829305673547,2023-11-13 14h01.46.745651 +0100,
gesicht4,3,4,52,11,,,,,532.6672857999802,,,,,,,,,,532.6159403999336,532.6672857999802,534.6823835000396,535.6308792000636,3.015751800034195,536.6166064003482,"[300, -300]",[0.337037037037037],[-0.2824074074074074],[1],[0],[0],[0.9849549001082778],[1],['target_find'],536.6172867999412,537.6315864999779,,,,,,,,,,,,,,,,,,,,,,,,,,,,,,,,094115,001,2023-11-13_13h40.16.508,Selektive Wahrnehmung,2023.2.3,59.95829305673547,2023-11-13 14h01.46.745651 +0100,
gesicht2,3,5,53,9,,,,,537.6809831000865,,,,,,,,,,537.6320001999848,537.6809831000865,539.6807873002253,540.647412400227,3.0159090999513865,541.4655363000929,"[-300, 300]",[-0.24537037037037038],[0.2361111111111111],[1],[0],[0],[0.8175843004137278],[1],['target_find'],541.4660179000348,542.4815278002061,,,,,,,,,,,,,,,,,,,,,,,,,,,,,,,,094115,001,2023-11-13_13h40.16.508,Selektive Wahrnehmung,2023.2.3,59.95829305673547,2023-11-13 14h01.46.745651 +0100,
zug1,3,6,54,15,,,,,542.5337535999715,,,,,,,,,,542.4821008001454,542.5337535999715,544.5485805999488,545.5139848999679,3.0325474003329873,547.449600700289,"[300, -300]",[0.29444444444444445],[-0.21851851851851853],[1],[0],[0],[1.9348503001965582],[1],['target_find'],547.4505734001286,548.4646199000999,,,,,,,,,,,,,,,,,,,,,,,,,,,,,,,,094115,001,2023-11-13_13h40.16.508,Selektive Wahrnehmung,2023.2.3,59.95829305673547,2023-11-13 14h01.46.745651 +0100,
gruppe1,3,7,55,6,,,,,548.5134487003088,,,,,,,,,,548.465228700079,548.5134487003088,550.5136847002432,551.4801281001419,3.015567199792713,552.3003499000333,"[0, -300]",[0.032407407407407406],[-0.30648148148148147],[1],[0],[0],[0.8193144998513162],[1],['target_find'],552.3017184999771,553.3143975003622,,,,,,,,,,,,,,,,,,,,,,,,,,,,,,,,094115,001,2023-11-13_13h40.16.508,Selektive Wahrnehmung,2023.2.3,59.95829305673547,2023-11-13 14h01.46.745651 +0100,
auto1,3,8,56,12,,,,,553.3502048002556,,,,,,,,,,553.3148389002308,553.3502048002556,555.3635154003277,556.3468098002486,3.0325096999295056,557.3499648999423,"[300, -300]",[0.24351851851851852],[-0.26666666666666666],[1],[0],[0],[1.0023525999858975],[1],['target_find'],557.351124800276,558.3642184999771,,,,,,,,,,,,,,,,,,,,,,,,,,,,,,,,094115,001,2023-11-13_13h40.16.508,Selektive Wahrnehmung,2023.2.3,59.95829305673547,2023-11-13 14h01.46.745651 +0100,
schlange1,3,9,57,2,,,,,558.3968205000274,,,,,,,,,,558.364755100105,558.3968205000274,560.3966264002956,561.3964595003054,2.9992125001735985,562.9477351000533,"[0, -300]",[0.08796296296296297],[-0.27314814814814814],[1],[0],[0],[1.5833831997588277],[1],['target_find'],562.9482583003119,563.9642384001054,,,,,,,,,,,,,,,,,,,,,,,,,,,,,,,,094115,001,2023-11-13_13h40.16.508,Selektive Wahrnehmung,2023.2.3,59.95829305673547,2023-11-13 14h01.46.745651 +0100,
gruppe2,3,10,58,7,,,,,564.012960200198,,,,,,,,,,563.9649915001355,564.012960200198,566.0130227003247,566.9960674000904,3.032012399751693,567.8669850002043,"[300, 300]",[0.19537037037037036],[0.24444444444444444],[1],[0],[0],[0.8698391001671553],[1],['target_find'],567.8683561002836,568.8814377002418,,,,,,,,,,,,,,,,,,,,,,,,,,,,,,,,094115,001,2023-11-13_13h40.16.508,Selektive Wahrnehmung,2023.2.3,59.95829305673547,2023-11-13 14h01.46.745651 +0100,
gesicht1,3,11,59,8,,,,,568.9327607001178,,,,,,,,,,568.881872900296,568.9327607001178,570.9471100000665,571.8957136999816,3.0143423001281917,572.5829293001443,"[0, 300]",[0.003703703703703704],[0.18981481481481483],[1],[0],[0],[0.6864506001584232],[1],['target_find'],572.5840897001326,573.5965938000008,,,,,,,,,,,,,,,,,,,,,,,,,,,,,,,,094115,001,2023-11-13_13h40.16.508,Selektive Wahrnehmung,2023.2.3,59.95829305673547,2023-11-13 14h01.46.745651 +0100,
schiff1,3,12,60,14,,,,,573.6294295000844,,,,,,,,,,573.5968619999476,573.6294295000844,575.6289323000237,576.6291758003645,3.0326998997479677,577.6497140000574,"[-300, 0]",[-0.45092592592592595],[0.04351851851851852],[1],[0],[0],[1.0194481001235545],[],[],577.6511230999604,578.6648928001523,,,,,,,,,,,,,,,,,,,,,,,,,,,,,,,,094115,001,2023-11-13_13h40.16.508,Selektive Wahrnehmung,2023.2.3,59.95829305673547,2023-11-13 14h01.46.745651 +0100,
person2,3,13,61,5,,,,,578.7153496001847,,,,,,,,,,578.6656712000258,578.7153496001847,580.7303989003412,581.6957096001133,3.0310117001645267,582.7153682000935,"[-300, 300]",[-0.22962962962962963],[0.2388888888888889],[1],[0],[0],[1.018695100210607],[1],['target_find'],582.7165133003145,583.7298758001998,,,,,,,,,,,,,,,,,,,,,,,,,,,,,,,,094115,001,2023-11-13_13h40.16.508,Selektive Wahrnehmung,2023.2.3,59.95829305673547,2023-11-13 14h01.46.745651 +0100,
spinne1,3,14,62,0,,,,,583.7787912003696,,,,,,,,,,583.730516300071,583.7787912003696,585.7788354000077,586.7620157999918,2.999008399900049,587.8654812001623,"[0, 300]",[0.008333333333333333],[0.2222222222222222],[1],[0],[0],[1.1354352002963424],[1],['target_find'],587.8666313001886,588.8802090003155,,,,,,,,,,,,,,,,,,,,,,,,,,,,,,,,094115,001,2023-11-13_13h40.16.508,Selektive Wahrnehmung,2023.2.3,59.95829305673547,2023-11-13 14h01.46.745651 +0100,
gesicht3,3,15,63,10,,,,,588.9318881002255,,,,,,,,,,588.8807991002686,588.9318881002255,590.9452912001871,591.8948964001611,3.014746400061995,592.8979285000823,"[0, 300]",[0.028703703703703703],[0.26481481481481484],[1],[0],[0],[1.0024835001677275],[1],['target_find'],592.8985498999245,593.9126977999695,,,,,,,,,,,,,,,,,,,,,,,,,,,,,,,,094115,001,2023-11-13_13h40.16.508,Selektive Wahrnehmung,2023.2.3,59.95829305673547,2023-11-13 14h01.46.745651 +0100,
gruppe1,4,0,64,6,,,,,593.9617861001752,,,,,,,,,,593.9132954999804,593.9617861001752,595.961526399944,596.9616332002915,2.9991338001564145,598.030736700166,"[-300, -300]",[-0.2175925925925926],[-0.20462962962962963],[1],[0],[0],[1.1177067002281547],[1],['target_find'],598.0318775000051,599.0457914001308,,,,,,,,,,,,,,,,,,,,,,,,,,,,,,,,094115,001,2023-11-13_13h40.16.508,Selektive Wahrnehmung,2023.2.3,59.95829305673547,2023-11-13 14h01.46.745651 +0100,
gesicht1,4,1,65,8,,,,,599.0793147003278,,,,,,,,,,599.0463765002787,599.0793147003278,601.0794339003041,602.078106299974,3.0323955002240837,603.529473700095,"[0, -300]",[0.03888888888888889],[-0.31296296296296294],[1],[0],[0],[1.4508424000814557],[1],['target_find'],603.530002400279,604.5458415001631,,,,,,,,,,,,,,,,,,,,,,,,,,,,,,,,094115,001,2023-11-13_13h40.16.508,Selektive Wahrnehmung,2023.2.3,59.95829305673547,2023-11-13 14h01.46.745651 +0100,
person2,4,2,66,5,,,,,604.5944680003449,,,,,,,,,,604.5465931002982,604.5944680003449,606.5945258000866,607.5775836003013,3.03190749976784,608.2640109001659,"[0, 300]",[0.004629629629629629],[0.19444444444444445],[1],[0],[0],[0.6854413999244571],[1],['target_find'],608.265178500209,609.2789031001739,,,,,,,,,,,,,,,,,,,,,,,,,,,,,,,,094115,001,2023-11-13_13h40.16.508,Selektive Wahrnehmung,2023.2.3,59.95829305673547,2023-11-13 14h01.46.745651 +0100,
spinne2,4,3,67,1,,,,,609.5109822000377,,,,,,,,,,609.2796546001919,609.5109822000377,611.5110480003059,612.3277619001456,3.048933600075543,613.1624493002892,"[0, -300]",[-0.018518518518518517],[-0.2916666666666667],[1],[0],[0],[0.8342166002839804],[1],['target_find'],613.1629343000241,614.1788392001763,,,,,,,,,,,,,,,,,,,,,,,,,,,,,,,,094115,001,2023-11-13_13h40.16.508,Selektive Wahrnehmung,2023.2.3,59.95829305673547,2023-11-13 14h01.46.745651 +0100,
spinne1,4,4,68,0,,,,,614.2608197000809,,,,,,,,,,614.1795946001075,614.2608197000809,616.2620429000817,617.2273097001016,3.0485353996045887,618.2796689001843,"[-300, 300]",[-0.24537037037037038],[0.2824074074074074],[1],[0],[0],[1.051558599807322],[1],['target_find'],618.2808094001375,619.2946546003222,,,,,,,,,,,,,,,,,,,,,,,,,,,,,,,,094115,001,2023-11-13_13h40.16.508,Selektive Wahrnehmung,2023.2.3,59.95829305673547,2023-11-13 14h01.46.745651 +0100,
flugzeug1,4,5,69,13,,,,,619.3272605002858,,,,,,,,,,619.2950963000767,619.3272605002858,621.3272617002949,622.3104556002654,3.0158836003392935,623.9654061002657,"[0, 300]",[-0.044444444444444446],[0.38333333333333336],[1],[0],[0],[1.654008099809289],[1],['target_find'],623.9668459999375,624.9780341000296,,,,,,,,,,,,,,,,,,,,,,,,,,,,,,,,094115,001,2023-11-13_13h40.16.508,Selektive Wahrnehmung,2023.2.3,59.95829305673547,2023-11-13 14h01.46.745651 +0100,
gesicht4,4,6,70,11,,,,,625.010356400162,,,,,,,,,,624.9786585001275,625.010356400162,627.0103688002564,628.010348000098,3.032393299974501,628.8806329001673,"[300, 300]",[0.25833333333333336],[0.28425925925925927],[1],[0],[0],[0.8694548001512885],[1],['target_find'],628.8817583001219,629.8957148999907,,,,,,,,,,,,,,,,,,,,,,,,,,,,,,,,094115,001,2023-11-13_13h40.16.508,Selektive Wahrnehmung,2023.2.3,59.95829305673547,2023-11-13 14h01.46.745651 +0100,
schlange2,4,7,71,3,,,,,629.9615815002471,,,,,,,,,,629.896466600243,629.9615815002471,631.9603417003527,632.9268831000663,3.031374499667436,633.6783000002615,"[0, 300]",[-0.014814814814814815],[0.2898148148148148],[1],[0],[0],[0.7506357999518514],[1],['target_find'],633.6788723999634,634.6948240003549,,,,,,,,,,,,,,,,,,,,,,,,,,,,,,,,094115,001,2023-11-13_13h40.16.508,Selektive Wahrnehmung,2023.2.3,59.95829305673547,2023-11-13 14h01.46.745651 +0100,
schlange1,4,8,72,2,,,,,634.7265074001625,,,,,,,,,,634.6955925999209,634.7265074001625,636.7265981999226,637.7266612001695,3.0319093000143766,638.4776884000748,"[0, 300]",[0.0],[0.2037037037037037],[1],[0],[0],[0.7504977998323739],[1],['target_find'],638.4781740000471,639.4946980001405,,,,,,,,,,,,,,,,,,,,,,,,,,,,,,,,094115,001,2023-11-13_13h40.16.508,Selektive Wahrnehmung,2023.2.3,59.95829305673547,2023-11-13 14h01.46.745651 +0100,
auto1,4,9,73,12,,,,,639.5462400000542,,,,,,,,,,639.4951941999607,639.5462400000542,641.5604572999291,642.5094313002191,3.014913000166416,643.2785956002772,"[-300, 300]",[-0.25],[0.3425925925925926],[1],[0],[0],[0.7682198998518288],[1],['target_find'],643.279686700087,644.2940313001163,,,,,,,,,,,,,,,,,,,,,,,,,,,,,,,,094115,001,2023-11-13_13h40.16.508,Selektive Wahrnehmung,2023.2.3,59.95829305673547,2023-11-13 14h01.46.745651 +0100,
person1,4,10,74,4,,,,,644.3428859002888,,,,,,,,,,644.2946558999829,644.3428859002888,646.3428168003447,647.3258577003144,3.0318841002881527,648.2605725000612,"[-300, 300]",[-0.32685185185185184],[0.3425925925925926],[1],[0],[0],[0.9341958998702466],[1],['target_find'],648.2610651003197,649.2785314000212,,,,,,,,,,,,,,,,,,,,,,,,,,,,,,,,094115,001,2023-11-13_13h40.16.508,Selektive Wahrnehmung,2023.2.3,59.95829305673547,2023-11-13 14h01.46.745651 +0100,
schiff1,4,11,75,14,,,,,649.3124179001898,,,,,,,,,,649.2792782001197,649.3124179001898,651.325608999934,652.325887999963,3.047431600280106,653.662314100191,"[0, -300]",[0.032407407407407406],[-0.25277777777777777],[1],[0],[0],[1.335661199875176],[1],['target_find'],653.6632876000367,654.6761354999617,,,,,,,,,,,,,,,,,,,,,,,,,,,,,,,,094115,001,2023-11-13_13h40.16.508,Selektive Wahrnehmung,2023.2.3,59.95829305673547,2023-11-13 14h01.46.745651 +0100,
gesicht2,4,12,76,9,,,,,654.7091745999642,,,,,,,,,,654.6764206001535,654.7091745999642,656.7090458003804,657.6922877002507,3.0162418000400066,658.4454238000326,"[300, 300]",[0.29444444444444445],[0.2212962962962963],[1],[0],[0],[0.7522149002179503],[1],['target_find'],658.4467132003047,659.4597734999843,,,,,,,,,,,,,,,,,,,,,,,,,,,,,,,,094115,001,2023-11-13_13h40.16.508,Selektive Wahrnehmung,2023.2.3,59.95829305673547,2023-11-13 14h01.46.745651 +0100,
zug1,4,13,77,15,,,,,659.5120661002584,,,,,,,,,,659.4602248002775,659.5120661002584,661.5268669999205,662.4751407001168,3.015431399922818,663.493429900147,"[-300, 0]",[-0.23425925925925925],[-0.025925925925925925],[1],[0],[0],[1.017740000039339],[1],['target_find'],663.4939932003617,664.5099192000926,,,,,,,,,,,,,,,,,,,,,,,,,,,,,,,,094115,001,2023-11-13_13h40.16.508,Selektive Wahrnehmung,2023.2.3,59.95829305673547,2023-11-13 14h01.46.745651 +0100,
gruppe2,4,14,78,7,,,,,664.5587594001554,,,,,,,,,,664.5107007999904,664.5587594001554,666.5585654000752,667.5584557000548,3.048615400213748,668.4282597000711,"[-300, -300]",[-0.25277777777777777],[-0.2212962962962963],[1],[0],[0],[0.8691352000460029],[1],['target_find'],668.4291042000987,669.4432598999701,,,,,,,,,,,,,,,,,,,,,,,,,,,,,,,,094115,001,2023-11-13_13h40.16.508,Selektive Wahrnehmung,2023.2.3,59.95829305673547,2023-11-13 14h01.46.745651 +0100,
gesicht3,4,15,79,10,,,,,669.4949141000398,,,,,,,,,,669.4440120002255,669.4949141000398,671.5097505003214,672.4580896999687,3.0148825999349356,673.1117625003681,"[300, 0]",[0.2796296296296296],[0.016666666666666666],[1],[0],[0],[0.6527756997384131],[1],['target_find'],673.1131568001583,674.1259032003582,,,,,,,,,,,,,,,,,,,,,,,,,,,,,,,,094115,001,2023-11-13_13h40.16.508,Selektive Wahrnehmung,2023.2.3,59.95829305673547,2023-11-13 14h01.46.745651 +0100,
,,,,,0,0,0,0,679.5108659001999,,,,,,,,,,,,,,,,,,,,,,,,,,,674.1398110003211,677.3594607999548,677.3594909003004,679.4443826000206,679.4457212002017,691.4323615003377,2.0,1.0,gesicht2,,,,,,,,,,,,,,,,,,,,,,,094115,001,2023-11-13_13h40.16.508,Selektive Wahrnehmung,2023.2.3,59.95829305673547,2023-11-13 14h01.46.745651 +0100,
,,,,,1,0,1,0,691.4769390001893,,,,,,,,,,,,,,,,,,,,,,,,,,,,,,,691.4327178001404,697.7316358000971,1.0,2.0,schiff1,,,,,,,,,,,,,,,,,,,,,,,094115,001,2023-11-13_13h40.16.508,Selektive Wahrnehmung,2023.2.3,59.95829305673547,2023-11-13 14h01.46.745651 +0100,
,,,,,2,0,2,0,697.7766506001353,,,,,,,,,,,,,,,,,,,,,,,,,,,,,,,697.7319379001856,703.5485859001055,2.0,2.0,flugzeug1,,,,,,,,,,,,,,,,,,,,,,,094115,001,2023-11-13_13h40.16.508,Selektive Wahrnehmung,2023.2.3,59.95829305673547,2023-11-13 14h01.46.745651 +0100,
,,,,,3,0,3,0,703.6099018999375,,,,,,,,,,,,,,,,,,,,,,,,,,,,,,,703.5489183003083,710.015379300341,1.0,4.0,spinne2,,,,,,,,,,,,,,,,,,,,,,,094115,001,2023-11-13_13h40.16.508,Selektive Wahrnehmung,2023.2.3,59.95829305673547,2023-11-13 14h01.46.745651 +0100,
,,,,,4,0,4,0,710.1596272001043,,,,,,,,,,,,,,,,,,,,,,,,,,,,,,,710.0157393002883,715.2981551000848,2.0,1.0,auto1,,,,,,,,,,,,,,,,,,,,,,,094115,001,2023-11-13_13h40.16.508,Selektive Wahrnehmung,2023.2.3,59.95829305673547,2023-11-13 14h01.46.745651 +0100,
,,,,,,,,,,,,,,,,,,,,,,,,,,,,,,,,,,,,,,,,,,,,,715.3021522001363,720.6428642002866, 20,1.0,720.6428871001117,736.8804216999561,3.0,2.0,736.8804411999881,742.0573907000944,742.0574197000824,757.7170656002127,4.0,3.0,5.0,2.0,757.71708710026,765.1292575001717,3.0,3.0,765.1292775999755,767.9733171002008,,,,,,,,
