Target,trials.thisRepN,trials.thisTrialN,trials.thisN,trials.thisIndex,trials_2.thisRepN,trials_2.thisTrialN,trials_2.thisN,trials_2.thisIndex,thisRow.t,notes,Data_transparency.started,key_resp_data_transp.started,Data_transparency.stopped,key_resp_data_transp.keys,key_resp_data_transp.rt,key_resp_data_transp.duration,instructions.started,instructions.stopped,trial.started,target_show.started,target_show.stopped,target_find.started,mouse.started,trial.stopped,target_position_x_y,mouse.x,mouse.y,mouse.leftButton,mouse.midButton,mouse.rightButton,mouse.time,mouse.corr,mouse.clicked_name,feedback.started,feedback.stopped,target_find.stopped,instructions_survey.started,instructions_survey.stopped,instructions_ratings.started,instructions_ratings.stopped,survey_ratings.started,survey_ratings.stopped,furcht.response,liebenswert.response,rated_image,survey_gen.started,survey_gen.stopped,age.text,gender.response,survey_games.started,survey_games.stopped,pc_frequency.response,reaction_games_frequency.response,instructions_neuro.started,instructions_neuro.stopped,survey_neuro.started,survey_neuro.stopped,neuro_1_rev.response,neuro_2.response,neuro_3.response,neuro_4_rev.response,survey_fear.started,survey_fear.stopped,specific_fear_spider.response,specific_fear_snake.response,thanks.started,thanks.stopped,participant,session,date,expName,psychopyVersion,frameRate,expStart,
,,,,,,,,,,,0.028457799984607846,0.04498919998877682,26.326888999989023,z,26.269010200019693,None,,,,,,,,,,,,,,,,,,,,,,,,,,,,,,,,,,,,,,,,,,,,,,,,,,,,094937,001,2023-11-13_13h16.04.663,Selektive Wahrnehmung,2023.2.3,59.89329410700357,2023-11-13 13h28.25.466829 +0100,
,,,,,,,,,,,,,,,,,26.32693989999825,58.527473199996166,,,,,,,,,,,,,,,,,,,,,,,,,,,,,,,,,,,,,,,,,,,,,,,,,,094937,001,2023-11-13_13h16.04.663,Selektive Wahrnehmung,2023.2.3,59.89329410700357,2023-11-13 13h28.25.466829 +0100,
gruppe2,0,0,0,7,,,,,58.5929300999851,,,,,,,,,,58.548330499994336,58.5929300999851,60.60776859999169,61.557740299991565,3.0303301999811083,63.44297129998449,"[300, 300]",[0.26944444444444443],[0.1638888888888889],[1],[0],[0],[1.8843851999845356],[1],['target_find'],63.445212099992204,64.45829109998886,,,,,,,,,,,,,,,,,,,,,,,,,,,,,,,,,094937,001,2023-11-13_13h16.04.663,Selektive Wahrnehmung,2023.2.3,59.89329410700357,2023-11-13 13h28.25.466829 +0100,
gesicht1,0,1,1,8,,,,,64.52616919999127,,,,,,,,,,64.45906829999876,64.52616919999127,66.5401118999871,67.48977699998068,3.0317480999801774,68.44176869999501,"[0, 300]",[0.016666666666666666],[0.23981481481481481],[1],[0],[0],[0.9509806999994908],[1],['target_find'],68.4427109999815,69.45755829999689,,,,,,,,,,,,,,,,,,,,,,,,,,,,,,,,,094937,001,2023-11-13_13h16.04.663,Selektive Wahrnehmung,2023.2.3,59.89329410700357,2023-11-13 13h28.25.466829 +0100,
zug1,0,2,2,15,,,,,69.50602859997889,,,,,,,,,,69.45846039999742,69.50602859997889,71.50600099997246,72.489450699999,3.0319670000171755,73.3927299999923,"[-300, 300]",[-0.2740740740740741],[0.2111111111111111],[1],[0],[0],[0.9023824000032619],[1],['target_find'],73.39417039998807,74.40694369998528,,,,,,,,,,,,,,,,,,,,,,,,,,,,,,,,,094937,001,2023-11-13_13h16.04.663,Selektive Wahrnehmung,2023.2.3,59.89329410700357,2023-11-13 13h28.25.466829 +0100,
person1,0,3,3,4,,,,,74.44243379999534,,,,,,,,,,74.4072209999722,74.44243379999534,76.45712939999066,77.42265989998123,3.0160456000012346,78.72603679998429,"[0, -300]",[0.1],[-0.29814814814814816],[1],[0],[0],[1.3021069999958854],[1],['target_find'],78.72744559997227,79.74040399998194,,,,,,,,,,,,,,,,,,,,,,,,,,,,,,,,,094937,001,2023-11-13_13h16.04.663,Selektive Wahrnehmung,2023.2.3,59.89329410700357,2023-11-13 13h28.25.466829 +0100,
spinne2,0,4,4,1,,,,,79.97215489999508,,,,,,,,,,79.7412940999784,79.97215489999508,81.97244679997675,82.78898329997901,3.048644399998011,83.39182969997637,"[0, -300]",[-0.000925925925925926],[-0.26481481481481484],[1],[0],[0],[0.6020459999854211],[1],['target_find'],83.39300059998641,84.40603819998796,,,,,,,,,,,,,,,,,,,,,,,,,,,,,,,,,094937,001,2023-11-13_13h16.04.663,Selektive Wahrnehmung,2023.2.3,59.89329410700357,2023-11-13 13h28.25.466829 +0100,
schlange1,0,5,5,2,,,,,84.47372069998528,,,,,,,,,,84.40630659999442,84.47372069998528,86.47364439998637,87.45691329997499,3.05118529999163,88.72485829997458,"[-300, 0]",[-0.2324074074074074],[-0.025925925925925925],[1],[0],[0],[1.2668542999890633],[1],['target_find'],88.72603999997955,89.74021739998716,,,,,,,,,,,,,,,,,,,,,,,,,,,,,,,,,094937,001,2023-11-13_13h16.04.663,Selektive Wahrnehmung,2023.2.3,59.89329410700357,2023-11-13 13h28.25.466829 +0100,
gesicht4,0,6,6,11,,,,,89.78860839997651,,,,,,,,,,89.74108999999589,89.78860839997651,91.78875039998093,92.77216149997548,3.032216099993093,93.52426859998377,"[300, -300]",[0.35555555555555557],[-0.33425925925925926],[1],[0],[0],[0.7510336999839637],[1],['target_find'],93.52544529997976,94.54097799997544,,,,,,,,,,,,,,,,,,,,,,,,,,,,,,,,,094937,001,2023-11-13_13h16.04.663,Selektive Wahrnehmung,2023.2.3,59.89329410700357,2023-11-13 13h28.25.466829 +0100,
schlange2,0,7,7,3,,,,,94.59175349998986,,,,,,,,,,94.54172589999507,94.59175349998986,96.60637629998382,97.57155599998077,3.0306311000022106,98.32468259998132,"[0, -300]",[0.12685185185185185],[-0.2861111111111111],[1],[0],[0],[0.7523495999921579],[1],['target_find'],98.32582869997714,99.33967129999655,,,,,,,,,,,,,,,,,,,,,,,,,,,,,,,,,094937,001,2023-11-13_13h16.04.663,Selektive Wahrnehmung,2023.2.3,59.89329410700357,2023-11-13 13h28.25.466829 +0100,
schiff1,0,8,8,14,,,,,99.38839339997503,,,,,,,,,,99.34054609999293,99.38839339997503,101.38841509999475,102.37131059999228,3.0316886999935377,103.62485039999592,"[0, 300]",[-0.016666666666666666],[0.17685185185185184],[1],[0],[0],[1.2527671999996528],[1],['target_find'],103.62601739997626,104.63872669998091,,,,,,,,,,,,,,,,,,,,,,,,,,,,,,,,,094937,001,2023-11-13_13h16.04.663,Selektive Wahrnehmung,2023.2.3,59.89329410700357,2023-11-13 13h28.25.466829 +0100,
gesicht2,0,9,9,9,,,,,104.67465349999839,,,,,,,,,,104.6390102999867,104.67465349999839,106.68828399997437,107.65474169998197,3.016090599994641,108.49165489998995,"[300, 300]",[0.2490740740740741],[0.26944444444444443],[1],[0],[0],[0.8359605000005104],[1],['target_find'],108.49296119998326,109.50606809998862,,,,,,,,,,,,,,,,,,,,,,,,,,,,,,,,,094937,001,2023-11-13_13h16.04.663,Selektive Wahrnehmung,2023.2.3,59.89329410700357,2023-11-13 13h28.25.466829 +0100,
spinne1,0,10,10,0,,,,,109.55461819999618,,,,,,,,,,109.50694739999017,109.55461819999618,111.55465689999983,112.53804839999066,3.032047499989858,113.27402389998315,"[300, 300]",[0.2601851851851852],[0.25462962962962965],[1],[0],[0],[0.7351865999808069],[1],['target_find'],113.27511189997313,114.28950629997416,,,,,,,,,,,,,,,,,,,,,,,,,,,,,,,,,094937,001,2023-11-13_13h16.04.663,Selektive Wahrnehmung,2023.2.3,59.89329410700357,2023-11-13 13h28.25.466829 +0100,
flugzeug1,0,11,11,13,,,,,114.35736739999265,,,,,,,,,,114.29045629999018,114.35736739999265,116.37204599997494,117.30464859999483,3.0152102999854833,117.79144979998819,"[300, 300]",[0.25555555555555554],[0.24722222222222223],[1],[0],[0],[0.4858202000032179],[1],['target_find'],117.79286929999944,118.80701109999791,,,,,,,,,,,,,,,,,,,,,,,,,,,,,,,,,094937,001,2023-11-13_13h16.04.663,Selektive Wahrnehmung,2023.2.3,59.89329410700357,2023-11-13 13h28.25.466829 +0100,
person2,0,12,12,5,,,,,118.85744419999537,,,,,,,,,,118.80775269999867,118.85744419999537,120.87221319999662,121.85426339998958,3.047331999987364,122.4057234999782,"[0, 300]",[0.11666666666666667],[0.23148148148148148],[1],[0],[0],[0.550929899996845],[1],['target_find'],122.40623609998147,123.42174049999448,,,,,,,,,,,,,,,,,,,,,,,,,,,,,,,,,094937,001,2023-11-13_13h16.04.663,Selektive Wahrnehmung,2023.2.3,59.89329410700357,2023-11-13 13h28.25.466829 +0100,
auto1,0,13,13,12,,,,,123.47080899999128,,,,,,,,,,123.42226849999861,123.47080899999128,125.47097519997624,126.45409519999521,3.032461399998283,127.22429609997198,"[-300, 0]",[-0.3990740740740741],[-0.04814814814814815],[1],[0],[0],[0.7692068000033032],[1],['target_find'],127.22559919999912,128.23866589998943,,,,,,,,,,,,,,,,,,,,,,,,,,,,,,,,,094937,001,2023-11-13_13h16.04.663,Selektive Wahrnehmung,2023.2.3,59.89329410700357,2023-11-13 13h28.25.466829 +0100,
gesicht3,0,14,14,10,,,,,128.2737745999766,,,,,,,,,,128.23934339999687,128.2737745999766,130.28854249999858,131.25381159997778,3.0152169999782927,132.0063364999951,"[-300, 300]",[-0.2777777777777778],[0.23796296296296296],[1],[0],[0],[0.75182780000614],[1],['target_find'],132.00724239999545,133.02159609997761,,,,,,,,,,,,,,,,,,,,,,,,,,,,,,,,,094937,001,2023-11-13_13h16.04.663,Selektive Wahrnehmung,2023.2.3,59.89329410700357,2023-11-13 13h28.25.466829 +0100,
gruppe1,0,15,15,6,,,,,133.07045719999587,,,,,,,,,,133.02218949998496,133.07045719999587,135.0705357999832,136.0536750999745,3.0321640000038315,136.95548439997947,"[300, 0]",[0.30185185185185187],[0.008333333333333333],[1],[0],[0],[0.9012507000006735],[1],['target_find'],136.9560495999758,137.97194199997466,,,,,,,,,,,,,,,,,,,,,,,,,,,,,,,,,094937,001,2023-11-13_13h16.04.663,Selektive Wahrnehmung,2023.2.3,59.89329410700357,2023-11-13 13h28.25.466829 +0100,
gesicht2,1,0,16,9,,,,,138.0066929999739,,,,,,,,,,137.97223359998316,138.0066929999739,140.02169139997568,140.98712429997977,3.015469799982384,141.75653529999545,"[0, 300]",[-0.027777777777777776],[0.2222222222222222],[1],[0],[0],[0.7682627000031061],[1],['target_find'],141.757610199973,142.77139549999265,,,,,,,,,,,,,,,,,,,,,,,,,,,,,,,,,094937,001,2023-11-13_13h16.04.663,Selektive Wahrnehmung,2023.2.3,59.89329410700357,2023-11-13 13h28.25.466829 +0100,
gesicht1,1,1,17,8,,,,,142.8201189999818,,,,,,,,,,142.77216449999833,142.8201189999818,144.82020389998797,145.80352809999022,3.0322113999864087,146.70602619997226,"[0, -300]",[0.04722222222222222],[-0.18796296296296297],[1],[0],[0],[0.901773299992783],[1],['target_find'],146.70701799998642,147.72213629999897,,,,,,,,,,,,,,,,,,,,,,,,,,,,,,,,,094937,001,2023-11-13_13h16.04.663,Selektive Wahrnehmung,2023.2.3,59.89329410700357,2023-11-13 13h28.25.466829 +0100,
schiff1,1,2,18,14,,,,,147.77138159997412,,,,,,,,,,147.72265479998896,147.77138159997412,149.77010239998344,150.75323529998423,3.0311902000103146,154.7363821999752,"[0, 300]",[],[],[],[],[],[],[],[],154.73737969997455,155.73727899999358,,,,,,,,,,,,,,,,,,,,,,,,,,,,,,,,,094937,001,2023-11-13_13h16.04.663,Selektive Wahrnehmung,2023.2.3,59.89329410700357,2023-11-13 13h28.25.466829 +0100,
gesicht3,1,3,19,10,,,,,155.76988709997386,,,,,,,,,,155.7378647000005,155.76988709997386,157.77102629997535,158.75269109997316,3.0154670999909285,159.67307269998128,"[300, -300]",[0.24351851851851852],[-0.20092592592592592],[1],[0],[0],[0.9194904000032693],[1],['target_find'],159.67446029998246,160.68755709999823,,,,,,,,,,,,,,,,,,,,,,,,,,,,,,,,,094937,001,2023-11-13_13h16.04.663,Selektive Wahrnehmung,2023.2.3,59.89329410700357,2023-11-13 13h28.25.466829 +0100,
spinne2,1,4,20,1,,,,,160.86961629998405,,,,,,,,,,160.68831519997912,160.86961629998405,162.869664799975,163.71918369998457,3.0316852999967523,164.3702264999738,"[300, 0]",[0.2361111111111111],[-0.005555555555555556],[1],[0],[0],[0.6505061000061687],[1],['target_find'],164.37067889998434,165.3878666999808,,,,,,,,,,,,,,,,,,,,,,,,,,,,,,,,,094937,001,2023-11-13_13h16.04.663,Selektive Wahrnehmung,2023.2.3,59.89329410700357,2023-11-13 13h28.25.466829 +0100,
gesicht4,1,5,21,11,,,,,165.45415529998718,,,,,,,,,,165.38814139997703,165.45415529998718,167.45275979998405,168.4193722999771,3.031779799988726,169.03863109997474,"[0, -300]",[0.05277777777777778],[-0.20833333333333334],[1],[0],[0],[0.6182655000011437],[1],['target_find'],169.0397255999851,170.0532905999862,,,,,,,,,,,,,,,,,,,,,,,,,,,,,,,,,094937,001,2023-11-13_13h16.04.663,Selektive Wahrnehmung,2023.2.3,59.89329410700357,2023-11-13 13h28.25.466829 +0100,
auto1,1,6,22,12,,,,,170.08582709997427,,,,,,,,,,170.05367859997205,170.08582709997427,172.08580859997892,173.06915849997313,3.0159506000054535,173.7369272999931,"[300, 0]",[0.29814814814814816],[-0.044444444444444446],[1],[0],[0],[0.667232999985572],[1],['target_find'],173.73746720000054,174.75507199999993,,,,,,,,,,,,,,,,,,,,,,,,,,,,,,,,,094937,001,2023-11-13_13h16.04.663,Selektive Wahrnehmung,2023.2.3,59.89329410700357,2023-11-13 13h28.25.466829 +0100,
spinne1,1,7,23,0,,,,,174.82224739997764,,,,,,,,,,174.75596369997947,174.82224739997764,176.83714039999177,177.78569809999317,3.0307005000067875,179.97223439998925,"[-300, -300]",[-0.2740740740740741],[-0.26851851851851855],[1],[0],[0],[2.1855836999893654],[1],['target_find'],179.97354899998754,180.9862419999845,,,,,,,,,,,,,,,,,,,,,,,,,,,,,,,,,094937,001,2023-11-13_13h16.04.663,Selektive Wahrnehmung,2023.2.3,59.89329410700357,2023-11-13 13h28.25.466829 +0100,
zug1,1,8,24,15,,,,,181.01897389997612,,,,,,,,,,180.98674729999038,181.01897389997612,183.01846619998105,184.0018275999755,3.0156447000044864,185.65566459999536,"[-300, 0]",[-0.22037037037037038],[-0.040740740740740744],[1],[0],[0],[1.6529168999986723],[1],['target_find'],185.6570874999743,186.67017549998127,,,,,,,,,,,,,,,,,,,,,,,,,,,,,,,,,094937,001,2023-11-13_13h16.04.663,Selektive Wahrnehmung,2023.2.3,59.89329410700357,2023-11-13 13h28.25.466829 +0100,
flugzeug1,1,9,25,13,,,,,186.71857449997333,,,,,,,,,,186.67092849998153,186.71857449997333,188.71846949998871,189.7016445999907,3.031529900006717,190.7372219999961,"[300, -300]",[0.30833333333333335],[-0.27685185185185185],[1],[0],[0],[1.0349281000089832],[1],['target_find'],190.73802259998047,191.75270199999795,,,,,,,,,,,,,,,,,,,,,,,,,,,,,,,,,094937,001,2023-11-13_13h16.04.663,Selektive Wahrnehmung,2023.2.3,59.89329410700357,2023-11-13 13h28.25.466829 +0100,
schlange2,1,10,26,3,,,,,191.78511169998092,,,,,,,,,,191.75323829997797,191.78511169998092,193.78504439999233,194.78483599997708,3.0321933000232093,196.15543590000016,"[0, 300]",[-0.10462962962962963],[0.27685185185185185],[1],[0],[0],[1.3696857999893837],[1],['target_find'],196.15676809998695,197.16939169997931,,,,,,,,,,,,,,,,,,,,,,,,,,,,,,,,,094937,001,2023-11-13_13h16.04.663,Selektive Wahrnehmung,2023.2.3,59.89329410700357,2023-11-13 13h28.25.466829 +0100,
schlange1,1,11,27,2,,,,,197.2212978999887,,,,,,,,,,197.169991999981,197.2212978999887,199.23616869997932,200.20285569998669,3.033739799982868,201.3711622999981,"[300, -300]",[0.2601851851851852],[-0.26944444444444443],[1],[0],[0],[1.1672381999960635],[1],['target_find'],201.3723415999848,202.38532699999632,,,,,,,,,,,,,,,,,,,,,,,,,,,,,,,,,094937,001,2023-11-13_13h16.04.663,Selektive Wahrnehmung,2023.2.3,59.89329410700357,2023-11-13 13h28.25.466829 +0100,
person1,1,12,28,4,,,,,202.4180124999839,,,,,,,,,,202.38560219999636,202.4180124999839,204.4180628999893,205.41816859997925,3.033124100009445,206.20370579999872,"[-300, -300]",[-0.2972222222222222],[-0.2518518518518518],[1],[0],[0],[0.7844743000168819],[1],['target_find'],206.20477479998954,207.21928649998154,,,,,,,,,,,,,,,,,,,,,,,,,,,,,,,,,094937,001,2023-11-13_13h16.04.663,Selektive Wahrnehmung,2023.2.3,59.89329410700357,2023-11-13 13h28.25.466829 +0100,
gruppe2,1,13,29,7,,,,,207.27077019997523,,,,,,,,,,207.22003889997723,207.27077019997523,209.28578629999538,210.23467869998422,3.015473400009796,211.46982799997204,"[0, 300]",[-0.08055555555555556],[0.2638888888888889],[1],[0],[0],[1.2344084000214934],[1],['target_find'],211.47083319997182,212.48571669997182,,,,,,,,,,,,,,,,,,,,,,,,,,,,,,,,,094937,001,2023-11-13_13h16.04.663,Selektive Wahrnehmung,2023.2.3,59.89329410700357,2023-11-13 13h28.25.466829 +0100,
person2,1,14,30,5,,,,,212.51769029998104,,,,,,,,,,212.48648329998832,212.51769029998104,214.51781349998782,215.51757729999372,3.031929700024193,216.40315519997966,"[0, 300]",[-0.017592592592592594],[0.2972222222222222],[1],[0],[0],[0.8850831000017934],[1],['target_find'],216.40365149997524,217.4187787999981,,,,,,,,,,,,,,,,,,,,,,,,,,,,,,,,,094937,001,2023-11-13_13h16.04.663,Selektive Wahrnehmung,2023.2.3,59.89329410700357,2023-11-13 13h28.25.466829 +0100,
gruppe1,1,15,31,6,,,,,217.46749589999672,,,,,,,,,,217.41953189999913,217.46749589999672,219.4674723999924,220.4507834999822,3.032085500017274,221.1868394999765,"[300, 300]",[0.20925925925925926],[0.30092592592592593],[1],[0],[0],[0.7352430000028107],[1],['target_find'],221.1879853999999,222.20160489997943,,,,,,,,,,,,,,,,,,,,,,,,,,,,,,,,,094937,001,2023-11-13_13h16.04.663,Selektive Wahrnehmung,2023.2.3,59.89329410700357,2023-11-13 13h28.25.466829 +0100,
schlange1,2,0,32,2,,,,,222.25065729999915,,,,,,,,,,222.20211589999963,222.25065729999915,224.25202549999813,225.2339304999914,3.032394600013504,225.753324099991,"[0, 300]",[0.046296296296296294],[0.18425925925925926],[1],[0],[0],[0.5185853999864776],[1],['target_find'],225.7544094999903,226.7682127999724,,,,,,,,,,,,,,,,,,,,,,,,,,,,,,,,,094937,001,2023-11-13_13h16.04.663,Selektive Wahrnehmung,2023.2.3,59.89329410700357,2023-11-13 13h28.25.466829 +0100,
schiff1,2,1,33,14,,,,,226.80053759997827,,,,,,,,,,226.76884779997636,226.80053759997827,228.8006326999748,229.80043159998604,2.9990535999822896,230.5533309999737,"[0, 300]",[0.025],[0.16944444444444445],[1],[0],[0],[0.7849229999992531],[1],['target_find'],230.55453579997993,231.56806559997494,,,,,,,,,,,,,,,,,,,,,,,,,,,,,,,,,094937,001,2023-11-13_13h16.04.663,Selektive Wahrnehmung,2023.2.3,59.89329410700357,2023-11-13 13h28.25.466829 +0100,
person1,2,2,34,4,,,,,231.6199048999988,,,,,,,,,,231.56867869998678,231.6199048999988,233.6348739999812,234.58368409998366,3.015694900008384,235.72028289997252,"[300, -300]",[0.2712962962962963],[-0.2851851851851852],[1],[0],[0],[1.1356511999911163],[1],['target_find'],235.7216813999985,236.73481929997797,,,,,,,,,,,,,,,,,,,,,,,,,,,,,,,,,094937,001,2023-11-13_13h16.04.663,Selektive Wahrnehmung,2023.2.3,59.89329410700357,2023-11-13 13h28.25.466829 +0100,
gesicht3,2,3,35,10,,,,,236.7835999999952,,,,,,,,,,236.73550189999514,236.7835999999952,238.7835282999731,239.766925599979,3.032402299984824,240.469561099977,"[300, -300]",[0.21296296296296297],[-0.225],[1],[0],[0],[0.7015612999966834],[1],['target_find'],240.47067199999583,241.4847961999767,,,,,,,,,,,,,,,,,,,,,,,,,,,,,,,,,094937,001,2023-11-13_13h16.04.663,Selektive Wahrnehmung,2023.2.3,59.89329410700357,2023-11-13 13h28.25.466829 +0100,
flugzeug1,2,4,36,13,,,,,241.51965559998644,,,,,,,,,,241.48540329997195,241.51965559998644,243.5342778999766,244.5001412999991,3.015645499981474,245.9528651999717,"[0, 300]",[-0.024074074074074074],[0.2824074074074074],[1],[0],[0],[1.4516306000004988],[1],['target_find'],245.95395169997937,246.9677864999976,,,,,,,,,,,,,,,,,,,,,,,,,,,,,,,,,094937,001,2023-11-13_13h16.04.663,Selektive Wahrnehmung,2023.2.3,59.89329410700357,2023-11-13 13h28.25.466829 +0100,
spinne2,2,5,37,1,,,,,247.16648409998743,,,,,,,,,,246.96851079998305,247.16648409998743,249.16642739999224,250.01649239999824,3.0487807000172324,251.6843437999778,"[0, -300]",[0.002777777777777778],[-0.25277777777777777],[1],[0],[0],[1.6672865999862552],[1],['target_find'],251.68487539998023,252.70143229997484,,,,,,,,,,,,,,,,,,,,,,,,,,,,,,,,,094937,001,2023-11-13_13h16.04.663,Selektive Wahrnehmung,2023.2.3,59.89329410700357,2023-11-13 13h28.25.466829 +0100,
gruppe2,2,6,38,7,,,,,252.7842289999826,,,,,,,,,,252.70218879997265,252.7842289999826,254.80102669997723,255.76626799997757,3.0649007000029087,257.66990489998716,"[300, -300]",[0.21944444444444444],[-0.28703703703703703],[1],[0],[0],[1.9026917000010144],[1],['target_find'],257.67130149999866,258.68405859998893,,,,,,,,,,,,,,,,,,,,,,,,,,,,,,,,,094937,001,2023-11-13_13h16.04.663,Selektive Wahrnehmung,2023.2.3,59.89329410700357,2023-11-13 13h28.25.466829 +0100,
zug1,2,7,39,15,,,,,258.73292959999526,,,,,,,,,,258.68480939997244,258.73292959999526,260.73261859998456,261.73262799999793,3.048624400020344,262.7184239999915,"[0, 300]",[0.01574074074074074],[0.17222222222222222],[1],[0],[0],[0.984993799997028],[1],['target_find'],262.71946339998976,263.73379349999595,,,,,,,,,,,,,,,,,,,,,,,,,,,,,,,,,094937,001,2023-11-13_13h16.04.663,Selektive Wahrnehmung,2023.2.3,59.89329410700357,2023-11-13 13h28.25.466829 +0100,
schlange2,2,8,40,3,,,,,263.7826688999776,,,,,,,,,,263.7344668999722,263.7826688999776,265.78258459997596,266.78250049997587,3.0487875000108033,269.71939799998654,"[300, -300]",[0.32037037037037036],[-0.3111111111111111],[1],[0],[0],[2.9359547000203747],[1],['target_find'],269.72071229998255,270.73366849997547,,,,,,,,,,,,,,,,,,,,,,,,,,,,,,,,,094937,001,2023-11-13_13h16.04.663,Selektive Wahrnehmung,2023.2.3,59.89329410700357,2023-11-13 13h28.25.466829 +0100,
person2,2,9,41,5,,,,,270.7822313999932,,,,,,,,,,270.7344150999852,270.7822313999932,272.7823148999887,273.765737299982,3.032344400009606,274.65075089997845,"[300, 300]",[0.31203703703703706],[0.18888888888888888],[1],[0],[0],[0.8840945000119973],[1],['target_find'],274.65151829997194,275.66795589998947,,,,,,,,,,,,,,,,,,,,,,,,,,,,,,,,,094937,001,2023-11-13_13h16.04.663,Selektive Wahrnehmung,2023.2.3,59.89329410700357,2023-11-13 13h28.25.466829 +0100,
gesicht1,2,10,42,8,,,,,275.7352678999887,,,,,,,,,,275.6688313999912,275.7352678999887,277.75017939999816,278.69879169997876,3.0309023000008892,279.6354970999819,"[0, -300]",[0.06574074074074074],[-0.23148148148148148],[1],[0],[0],[0.9357726000016555],[1],['target_find'],279.63678949998575,280.6499215999793,,,,,,,,,,,,,,,,,,,,,,,,,,,,,,,,,094937,001,2023-11-13_13h16.04.663,Selektive Wahrnehmung,2023.2.3,59.89329410700357,2023-11-13 13h28.25.466829 +0100,
gesicht2,2,11,43,9,,,,,280.698654399981,,,,,,,,,,280.65067350000027,280.698654399981,282.6986274999799,283.6819106999901,3.0320682000019588,285.7852464999887,"[-300, 300]",[-0.27037037037037037],[0.32407407407407407],[1],[0],[0],[2.102367999992566],[1],['target_find'],285.7866531999898,286.79972109998926,,,,,,,,,,,,,,,,,,,,,,,,,,,,,,,,,094937,001,2023-11-13_13h16.04.663,Selektive Wahrnehmung,2023.2.3,59.89329410700357,2023-11-13 13h28.25.466829 +0100,
spinne1,2,12,44,0,,,,,286.85132589997374,,,,,,,,,,286.8004663999891,286.85132589997374,288.8651605999912,289.81500639999285,3.0153613000002224,291.3499405999901,"[-300, 300]",[-0.1814814814814815],[0.20185185185185187],[1],[0],[0],[1.5343967999797314],[1],['target_find'],291.35048659998574,292.3647936999914,,,,,,,,,,,,,,,,,,,,,,,,,,,,,,,,,094937,001,2023-11-13_13h16.04.663,Selektive Wahrnehmung,2023.2.3,59.89329410700357,2023-11-13 13h28.25.466829 +0100,
auto1,2,13,45,12,,,,,292.3982627999794,,,,,,,,,,292.36503109999467,292.3982627999794,294.398109199974,295.3812841999752,3.016570399980992,295.8845609999844,"[0, 300]",[-0.025],[0.21574074074074073],[1],[0],[0],[0.5024438999826089],[1],['target_find'],295.8857903999742,296.90066219997243,,,,,,,,,,,,,,,,,,,,,,,,,,,,,,,,,094937,001,2023-11-13_13h16.04.663,Selektive Wahrnehmung,2023.2.3,59.89329410700357,2023-11-13 13h28.25.466829 +0100,
gruppe1,2,14,46,6,,,,,296.95139139998355,,,,,,,,,,296.9014280999836,296.95139139998355,298.9649194999947,299.93149849999463,3.030912000016542,301.01785969999037,"[-300, -300]",[-0.21944444444444444],[-0.2212962962962963],[1],[0],[0],[1.0854717000038363],[1],['target_find'],301.0190461999737,302.032223599992,,,,,,,,,,,,,,,,,,,,,,,,,,,,,,,,,094937,001,2023-11-13_13h16.04.663,Selektive Wahrnehmung,2023.2.3,59.89329410700357,2023-11-13 13h28.25.466829 +0100,
gesicht4,2,15,47,11,,,,,302.08127749999403,,,,,,,,,,302.03283739998005,302.08127749999403,304.08118009998,305.0811967999907,2.999098000000231,305.9335013999953,"[-300, -300]",[-0.2777777777777778],[-0.15185185185185185],[1],[0],[0],[0.9010778999945614],[1],['target_find'],305.9345020999899,306.94998499998474,,,,,,,,,,,,,,,,,,,,,,,,,,,,,,,,,094937,001,2023-11-13_13h16.04.663,Selektive Wahrnehmung,2023.2.3,59.89329410700357,2023-11-13 13h28.25.466829 +0100,
spinne1,3,0,48,0,,,,,307.000901899999,,,,,,,,,,306.95062689998304,307.000901899999,309.01511279999977,309.99768239998957,3.047780499997316,311.2665675999888,"[300, -300]",[0.25277777777777777],[-0.20185185185185187],[1],[0],[0],[1.2680630999966525],[1],['target_find'],311.2676764999924,312.281788399996,,,,,,,,,,,,,,,,,,,,,,,,,,,,,,,,,094937,001,2023-11-13_13h16.04.663,Selektive Wahrnehmung,2023.2.3,59.89329410700357,2023-11-13 13h28.25.466829 +0100,
gruppe2,3,1,49,7,,,,,312.33091419999255,,,,,,,,,,312.2823565999861,312.33091419999255,314.33087999999407,315.3142404999817,2.9990637000009883,316.3988244999782,"[0, 300]",[-0.008333333333333333],[0.3712962962962963],[1],[0],[0],[1.1171719999983907],[1],['target_find'],316.3993421999912,317.41500569999334,,,,,,,,,,,,,,,,,,,,,,,,,,,,,,,,,094937,001,2023-11-13_13h16.04.663,Selektive Wahrnehmung,2023.2.3,59.89329410700357,2023-11-13 13h28.25.466829 +0100,
spinne2,3,2,50,1,,,,,317.6139334999898,,,,,,,,,,317.4156619999849,317.6139334999898,319.61389689997304,320.4470265999844,3.032075299997814,321.31627419998404,"[0, -300]",[-0.002777777777777778],[-0.16944444444444445],[1],[0],[0],[0.8684175999951549],[1],['target_find'],321.3174302999978,322.33267949998844,,,,,,,,,,,,,,,,,,,,,,,,,,,,,,,,,094937,001,2023-11-13_13h16.04.663,Selektive Wahrnehmung,2023.2.3,59.89329410700357,2023-11-13 13h28.25.466829 +0100,
gesicht2,3,3,51,9,,,,,322.3984263999737,,,,,,,,,,322.3332055999781,322.3984263999737,324.3984716999985,325.3972555999935,3.0646509999933187,326.66612289997283,"[300, -300]",[0.19166666666666668],[-0.24074074074074073],[1],[0],[0],[1.2681226000131574],[1],['target_find'],326.6671019999776,327.6815158999816,,,,,,,,,,,,,,,,,,,,,,,,,,,,,,,,,094937,001,2023-11-13_13h16.04.663,Selektive Wahrnehmung,2023.2.3,59.89329410700357,2023-11-13 13h28.25.466829 +0100,
gesicht3,3,4,52,10,,,,,327.7303977999836,,,,,,,,,,327.6822770999861,327.7303977999836,329.73033409999334,330.73032740000053,3.0488832000119146,331.39966659998754,"[-300, 0]",[-0.22592592592592592],[0.005555555555555556],[1],[0],[0],[0.6685237000056077],[1],['target_find'],331.40074929999537,332.4139783999999,,,,,,,,,,,,,,,,,,,,,,,,,,,,,,,,,094937,001,2023-11-13_13h16.04.663,Selektive Wahrnehmung,2023.2.3,59.89329410700357,2023-11-13 13h28.25.466829 +0100,
schlange2,3,5,53,3,,,,,332.4482003999874,,,,,,,,,,332.41424419998657,332.4482003999874,334.44805549999,335.4299161999952,3.0160004000063054,339.43026899997494,"[-300, 300]",[],[],[],[],[],[],[],[],339.4313122999738,340.43030799998087,339.4299536999897,,,,,,,,,,,,,,,,,,,,,,,,,,,,,,,,094937,001,2023-11-13_13h16.04.663,Selektive Wahrnehmung,2023.2.3,59.89329410700357,2023-11-13 13h28.25.466829 +0100,
person2,3,6,54,5,,,,,340.46324779998395,,,,,,,,,,340.430607199989,340.46324779998395,342.4645466999791,343.4463569999789,3.016318500012858,344.18147959999624,"[300, 300]",[0.26944444444444443],[0.2972222222222222],[1],[0],[0],[0.7342281999881379],[1],['target_find'],344.18210779997753,345.19727399997646,,,,,,,,,,,,,,,,,,,,,,,,,,,,,,,,,094937,001,2023-11-13_13h16.04.663,Selektive Wahrnehmung,2023.2.3,59.89329410700357,2023-11-13 13h28.25.466829 +0100,
zug1,3,7,55,15,,,,,345.22969479998574,,,,,,,,,,345.19784269999946,345.22969479998574,347.22960469999816,348.22952319998876,2.9990186000068206,348.9482655999891,"[-300, -300]",[-0.22592592592592592],[-0.20555555555555555],[1],[0],[0],[0.7509365000005346],[1],['target_find'],348.94930089998525,349.9644015999802,,,,,,,,,,,,,,,,,,,,,,,,,,,,,,,,,094937,001,2023-11-13_13h16.04.663,Selektive Wahrnehmung,2023.2.3,59.89329410700357,2023-11-13 13h28.25.466829 +0100,
flugzeug1,3,8,56,13,,,,,350.01584559999174,,,,,,,,,,349.9650869999896,350.01584559999174,352.0295384999772,352.97942049999256,3.015100899996469,354.2661801999784,"[300, 0]",[0.22037037037037038],[-0.05462962962962963],[1],[0],[0],[1.2858299000072293],[1],['target_find'],354.2674629999965,355.28034849997493,,,,,,,,,,,,,,,,,,,,,,,,,,,,,,,,,094937,001,2023-11-13_13h16.04.663,Selektive Wahrnehmung,2023.2.3,59.89329410700357,2023-11-13 13h28.25.466829 +0100,
schiff1,3,9,57,14,,,,,355.31263409997337,,,,,,,,,,355.2810018999735,355.31263409997337,357.31267919999664,358.3122647999844,2.999049500009278,358.9986908999854,"[0, -300]",[0.03981481481481482],[-0.2490740740740741],[1],[0],[0],[0.7181433999794535],[1],['target_find'],358.99983379998594,360.0146228999947,,,,,,,,,,,,,,,,,,,,,,,,,,,,,,,,,094937,001,2023-11-13_13h16.04.663,Selektive Wahrnehmung,2023.2.3,59.89329410700357,2023-11-13 13h28.25.466829 +0100,
person1,3,10,58,4,,,,,360.04718219998176,,,,,,,,,,360.0152040999965,360.04718219998176,362.0470669999777,363.04706189999706,3.0327432999911252,363.813802699995,"[0, -300]",[0.000925925925925926],[-0.20555555555555555],[1],[0],[0],[0.7658896000066306],[1],['target_find'],363.81436629997916,364.83019799998146,,,,,,,,,,,,,,,,,,,,,,,,,,,,,,,,,094937,001,2023-11-13_13h16.04.663,Selektive Wahrnehmung,2023.2.3,59.89329410700357,2023-11-13 13h28.25.466829 +0100,
gesicht4,3,11,59,11,,,,,364.87911339997663,,,,,,,,,,364.8309412999952,364.87911339997663,366.8789972999948,367.8623458999791,3.032219199987594,368.4984175999998,"[-300, 0]",[-0.33425925925925926],[-0.03518518518518519],[1],[0],[0],[0.6351304000127129],[1],['target_find'],368.4998169999744,369.5131621999899,,,,,,,,,,,,,,,,,,,,,,,,,,,,,,,,,094937,001,2023-11-13_13h16.04.663,Selektive Wahrnehmung,2023.2.3,59.89329410700357,2023-11-13 13h28.25.466829 +0100,
schlange1,3,12,60,2,,,,,369.5622013999964,,,,,,,,,,369.51375789998565,369.5622013999964,371.56290549997357,372.5285310999898,3.0154270000057295,375.6798152999836,"[300, 0]",[0.287962962962963],[-0.0712962962962963],[1],[0],[0],[3.150749899999937],[1],['target_find'],375.68035439998494,376.6962189999758,,,,,,,,,,,,,,,,,,,,,,,,,,,,,,,,,094937,001,2023-11-13_13h16.04.663,Selektive Wahrnehmung,2023.2.3,59.89329410700357,2023-11-13 13h28.25.466829 +0100,
auto1,3,13,61,12,,,,,376.74526359999436,,,,,,,,,,376.6967884999758,376.74526359999436,378.7457575999724,379.7117643999809,3.015805300005013,381.4645614999754,"[300, 300]",[0.2111111111111111],[-0.07037037037037037],[1],[0],[0],[1.7516899000038393],[0],['dis3'],381.4657239999797,382.47975629998837,,,,,,,,,,,,,,,,,,,,,,,,,,,,,,,,,094937,001,2023-11-13_13h16.04.663,Selektive Wahrnehmung,2023.2.3,59.89329410700357,2023-11-13 13h28.25.466829 +0100,
gruppe1,3,14,62,6,,,,,382.51170079997974,,,,,,,,,,382.4806995999825,382.51170079997974,384.51169249997474,385.51143869999214,3.0317302999901585,386.13062609999906,"[0, -300]",[0.025],[-0.26481481481481484],[1],[0],[0],[0.6183796000259463],[1],['target_find'],386.1319182999723,387.1461430999916,,,,,,,,,,,,,,,,,,,,,,,,,,,,,,,,,094937,001,2023-11-13_13h16.04.663,Selektive Wahrnehmung,2023.2.3,59.89329410700357,2023-11-13 13h28.25.466829 +0100,
gesicht1,3,15,63,8,,,,,387.17803829998593,,,,,,,,,,387.1468760999851,387.17803829998593,389.17817619998823,390.1949142999947,3.0488451999844983,390.96644929997274,"[-300, 300]",[-0.2601851851851852],[0.2462962962962963],[1],[0],[0],[0.7702821000129916],[1],['target_find'],390.9685587999993,391.9794373999757,,,,,,,,,,,,,,,,,,,,,,,,,,,,,,,,,094937,001,2023-11-13_13h16.04.663,Selektive Wahrnehmung,2023.2.3,59.89329410700357,2023-11-13 13h28.25.466829 +0100,
spinne1,4,0,64,0,,,,,392.0312082999735,,,,,,,,,,391.9802979999804,392.0312082999735,394.046002099989,394.99431049998384,3.0151169000018854,396.24838359997375,"[0, 300]",[-0.06574074074074074],[0.25462962962962965],[1],[0],[0],[1.2524176000151783],[1],['target_find'],396.24987390000024,397.26241429999936,,,,,,,,,,,,,,,,,,,,,,,,,,,,,,,,,094937,001,2023-11-13_13h16.04.663,Selektive Wahrnehmung,2023.2.3,59.89329410700357,2023-11-13 13h28.25.466829 +0100,
person1,4,1,65,4,,,,,397.29443739997805,,,,,,,,,,397.2631678999751,397.29443739997805,399.29444339999463,400.29429299998446,3.0321334000036586,401.12905769998906,"[0, 300]",[-0.008333333333333333],[0.19074074074074074],[1],[0],[0],[0.8340357000124641],[1],['target_find'],401.1295828000002,402.1458051999798,,,,,,,,,,,,,,,,,,,,,,,,,,,,,,,,,094937,001,2023-11-13_13h16.04.663,Selektive Wahrnehmung,2023.2.3,59.89329410700357,2023-11-13 13h28.25.466829 +0100,
gesicht4,4,2,66,11,,,,,402.2123700999946,,,,,,,,,,402.1466892999888,402.2123700999946,404.2110815999913,405.1607289999956,3.014973100012867,405.79692139997496,"[300, 300]",[0.14537037037037037],[0.20555555555555555],[1],[0],[0],[0.6353179999860004],[1],['target_find'],405.7981344999862,406.8118505999737,,,,,,,,,,,,,,,,,,,,,,,,,,,,,,,,,094937,001,2023-11-13_13h16.04.663,Selektive Wahrnehmung,2023.2.3,59.89329410700357,2023-11-13 13h28.25.466829 +0100,
gruppe1,4,3,67,6,,,,,406.84421759998077,,,,,,,,,,406.8124463999993,406.84421759998077,408.8441506999952,409.8443302999949,3.0327787999995053,411.2793907999876,"[300, -300]",[0.2537037037037037],[-0.17685185185185184],[1],[0],[0],[1.434070099989185],[1],['target_find'],411.2802730999829,412.2953671999858,,,,,,,,,,,,,,,,,,,,,,,,,,,,,,,,,094937,001,2023-11-13_13h16.04.663,Selektive Wahrnehmung,2023.2.3,59.89329410700357,2023-11-13 13h28.25.466829 +0100,
gesicht2,4,4,68,9,,,,,412.33042469999054,,,,,,,,,,412.2960211999889,412.33042469999054,414.34393379997346,415.31054829998175,3.015262300003087,415.9463279999909,"[300, 0]",[0.24537037037037038],[-0.017592592592592594],[1],[0],[0],[0.6350489000033122],[1],['target_find'],415.947311899974,416.96183879999444,,,,,,,,,,,,,,,,,,,,,,,,,,,,,,,,,094937,001,2023-11-13_13h16.04.663,Selektive Wahrnehmung,2023.2.3,59.89329410700357,2023-11-13 13h28.25.466829 +0100,
flugzeug1,4,5,69,13,,,,,417.01023409998743,,,,,,,,,,416.96275519998744,417.01023409998743,419.0104739999806,419.99370579997776,3.031943100009812,420.84657769999467,"[300, 300]",[0.2175925925925926],[0.15648148148148147],[1],[0],[0],[0.851924799993867],[1],['target_find'],420.84800019999966,421.86163479997776,,,,,,,,,,,,,,,,,,,,,,,,,,,,,,,,,094937,001,2023-11-13_13h16.04.663,Selektive Wahrnehmung,2023.2.3,59.89329410700357,2023-11-13 13h28.25.466829 +0100,
gruppe2,4,6,70,7,,,,,421.9302372999955,,,,,,,,,,421.86238359997515,421.9302372999955,423.94476279997616,424.8767016999773,3.015112599998247,428.8771007999894,"[300, 0]",[],[],[],[],[],[],[],[],428.8783481999999,429.8775791999942,428.87676669997745,,,,,,,,,,,,,,,,,,,,,,,,,,,,,,,,094937,001,2023-11-13_13h16.04.663,Selektive Wahrnehmung,2023.2.3,59.89329410700357,2023-11-13 13h28.25.466829 +0100,
schlange2,4,7,71,3,,,,,429.9265725000005,,,,,,,,,,429.87815059997956,429.9265725000005,431.92728720000014,432.89304469997296,3.0155257000005804,434.0802446999878,"[-300, -300]",[-0.23796296296296296],[-0.30833333333333335],[1],[0],[0],[1.1862214999855496],[1],['target_find'],434.08168389997445,435.0939696999849,,,,,,,,,,,,,,,,,,,,,,,,,,,,,,,,,094937,001,2023-11-13_13h16.04.663,Selektive Wahrnehmung,2023.2.3,59.89329410700357,2023-11-13 13h28.25.466829 +0100,
schiff1,4,8,72,14,,,,,435.12656229999266,,,,,,,,,,435.09446269998443,435.12656229999266,437.1265970999957,438.10984469999676,3.0159552000113763,438.9305471999978,"[300, 0]",[0.30648148148148147],[-0.003703703703703704],[1],[0],[0],[0.8198478999838699],[1],['target_find'],438.93179029997555,439.94466969999485,,,,,,,,,,,,,,,,,,,,,,,,,,,,,,,,,094937,001,2023-11-13_13h16.04.663,Selektive Wahrnehmung,2023.2.3,59.89329410700357,2023-11-13 13h28.25.466829 +0100,
auto1,4,9,73,12,,,,,439.99624569999287,,,,,,,,,,439.9453499999945,439.99624569999287,442.01107779997983,442.97639239998534,3.03199330001371,443.9302734999801,"[300, -300]",[0.06111111111111111],[-0.013888888888888888],[1],[0],[0],[0.9526418999885209],[0],['dis5'],443.93162079999456,444.94416799998726,,,,,,,,,,,,,,,,,,,,,,,,,,,,,,,,,094937,001,2023-11-13_13h16.04.663,Selektive Wahrnehmung,2023.2.3,59.89329410700357,2023-11-13 13h28.25.466829 +0100,
person2,4,10,74,5,,,,,444.9928026999987,,,,,,,,,,444.94493049997254,444.9928026999987,446.9928150999767,447.9760150999937,3.031909999990603,448.9608447999926,"[-300, -300]",[-0.1537037037037037],[-0.24259259259259258],[1],[0],[0],[0.9843066000030376],[1],['target_find'],448.96136249997653,449.97666639997624,,,,,,,,,,,,,,,,,,,,,,,,,,,,,,,,,094937,001,2023-11-13_13h16.04.663,Selektive Wahrnehmung,2023.2.3,59.89329410700357,2023-11-13 13h28.25.466829 +0100,
zug1,4,11,75,15,,,,,450.00907939998433,,,,,,,,,,449.9770685999829,450.00907939998433,452.009024399973,452.99255239998456,3.016156300000148,453.5781665999966,"[-300, 0]",[-0.28703703703703703],[-0.06296296296296296],[1],[0],[0],[0.584684000001289],[1],['target_find'],453.5790317999781,454.59267229997204,,,,,,,,,,,,,,,,,,,,,,,,,,,,,,,,,094937,001,2023-11-13_13h16.04.663,Selektive Wahrnehmung,2023.2.3,59.89329410700357,2023-11-13 13h28.25.466829 +0100,
spinne2,4,12,76,1,,,,,454.79223719998845,,,,,,,,,,454.59291389997816,454.79223719998845,456.79346169999917,457.6256855999818,3.0331018999859225,458.29425399997854,"[-300, 0]",[-0.23703703703703705],[-0.07314814814814814],[1],[0],[0],[0.6680251999932807],[1],['target_find'],458.2948211999901,459.30939799998305,,,,,,,,,,,,,,,,,,,,,,,,,,,,,,,,,094937,001,2023-11-13_13h16.04.663,Selektive Wahrnehmung,2023.2.3,59.89329410700357,2023-11-13 13h28.25.466829 +0100,
gesicht1,4,13,77,8,,,,,459.3591767999751,,,,,,,,,,459.30967769998824,459.3591767999751,461.3589408999833,462.3419020999863,3.032575999997789,462.9768674999941,"[300, 0]",[0.2074074074074074],[-0.013888888888888888],[1],[0],[0],[0.6344291999994311],[1],['target_find'],462.9773875999963,463.9947247999953,,,,,,,,,,,,,,,,,,,,,,,,,,,,,,,,,094937,001,2023-11-13_13h16.04.663,Selektive Wahrnehmung,2023.2.3,59.89329410700357,2023-11-13 13h28.25.466829 +0100,
gesicht3,4,14,78,10,,,,,464.0451275999949,,,,,,,,,,463.99548039998626,464.0451275999949,466.0598164999974,467.02517129998887,3.030498899985105,467.8615710999875,"[-300, -300]",[-0.2490740740740741],[-0.24722222222222223],[1],[0],[0],[0.835606699984055],[1],['target_find'],467.86270929998136,468.8760599999805,,,,,,,,,,,,,,,,,,,,,,,,,,,,,,,,,094937,001,2023-11-13_13h16.04.663,Selektive Wahrnehmung,2023.2.3,59.89329410700357,2023-11-13 13h28.25.466829 +0100,
schlange1,4,15,79,2,,,,,468.9254205999896,,,,,,,,,,468.8765707999992,468.9254205999896,470.92512239998905,471.92505929997424,2.9990838000085205,472.5944345999742,"[0, -300]",[-0.041666666666666664],[-0.22870370370370371],[1],[0],[0],[0.7181230999995023],[1],['target_find'],472.5953719999816,473.6109920999734,,,,,,,,,,,,,,,,,,,,,,,,,,,,,,,,,094937,001,2023-11-13_13h16.04.663,Selektive Wahrnehmung,2023.2.3,59.89329410700357,2023-11-13 13h28.25.466829 +0100,
,,,,,0,0,0,0,481.59453169998596,,,,,,,,,,,,,,,,,,,,,,,,,,,,473.64058859998477,477.2295566999819,477.22958529999596,481.52761579997605,481.528743199975,493.0823116999818,2.0,2.0,spinne2,,,,,,,,,,,,,,,,,,,,,,,094937,001,2023-11-13_13h16.04.663,Selektive Wahrnehmung,2023.2.3,59.89329410700357,2023-11-13 13h28.25.466829 +0100,
,,,,,1,0,1,0,493.2089347000001,,,,,,,,,,,,,,,,,,,,,,,,,,,,,,,,493.0826490999898,497.6805903999775,2.0,2.0,person1,,,,,,,,,,,,,,,,,,,,,,,094937,001,2023-11-13_13h16.04.663,Selektive Wahrnehmung,2023.2.3,59.89329410700357,2023-11-13 13h28.25.466829 +0100,
,,,,,2,0,2,0,497.7605891999847,,,,,,,,,,,,,,,,,,,,,,,,,,,,,,,,497.68089249997865,502.49850489999517,1.0,3.0,gesicht3,,,,,,,,,,,,,,,,,,,,,,,094937,001,2023-11-13_13h16.04.663,Selektive Wahrnehmung,2023.2.3,59.89329410700357,2023-11-13 13h28.25.466829 +0100,
,,,,,3,0,3,0,502.5604079999903,,,,,,,,,,,,,,,,,,,,,,,,,,,,,,,,502.49880449997727,506.46570539998356,3.0,3.0,schlange1,,,,,,,,,,,,,,,,,,,,,,,094937,001,2023-11-13_13h16.04.663,Selektive Wahrnehmung,2023.2.3,59.89329410700357,2023-11-13 13h28.25.466829 +0100,
,,,,,4,0,4,0,506.52702979999594,,,,,,,,,,,,,,,,,,,,,,,,,,,,,,,,506.4660152999859,511.4989179999975,2.0,3.0,schlange2,,,,,,,,,,,,,,,,,,,,,,,094937,001,2023-11-13_13h16.04.663,Selektive Wahrnehmung,2023.2.3,59.89329410700357,2023-11-13 13h28.25.466829 +0100,
,,,,,,,,,,,,,,,,,,,,,,,,,,,,,,,,,,,,,,,,,,,,,,511.5029657999985,519.693947199994, 18,1.0,519.6939679999778,539.8148239999718,2.0,3.0,539.8148441999801,544.0591929999937,544.0592318999988,564.4450412000006,3.0,3.0,2.0,3.0,564.4450742999907,573.0294134999858,4.0,3.0,573.0294307000004,573.9916862999962,,,,,,,,
