Target,trials.thisRepN,trials.thisTrialN,trials.thisN,trials.thisIndex,trials_2.thisRepN,trials_2.thisTrialN,trials_2.thisN,trials_2.thisIndex,thisRow.t,notes,Data_transparency.started,key_resp_data_transp.started,Data_transparency.stopped,key_resp_data_transp.keys,key_resp_data_transp.rt,key_resp_data_transp.duration,instructions.started,instructions.stopped,trial.started,target_show.started,target_show.stopped,target_find.started,mouse.started,trial.stopped,target_position_x_y,mouse.x,mouse.y,mouse.leftButton,mouse.midButton,mouse.rightButton,mouse.time,mouse.corr,mouse.clicked_name,feedback.started,feedback.stopped,instructions_survey.started,instructions_survey.stopped,instructions_ratings.started,instructions_ratings.stopped,survey_ratings.started,survey_ratings.stopped,furcht.response,liebenswert.response,rated_image,survey_gen.started,survey_gen.stopped,age.text,gender.response,survey_games.started,survey_games.stopped,pc_frequency.response,reaction_games_frequency.response,instructions_neuro.started,instructions_neuro.stopped,survey_neuro.started,survey_neuro.stopped,neuro_1_rev.response,neuro_2.response,neuro_3.response,neuro_4_rev.response,survey_fear.started,survey_fear.stopped,specific_fear_spider.response,specific_fear_snake.response,thanks.started,thanks.stopped,participant,session,date,expName,psychopyVersion,frameRate,expStart,
,,,,,,,,,,,0.004173366514805821,0.013381396832301107,8.991256182752295,z,8.972860602106266,None,,,,,,,,,,,,,,,,,,,,,,,,,,,,,,,,,,,,,,,,,,,,,,,,,,,136122,001,2023-11-06_13h05.17.912,Selektive Wahrnehmung,2023.2.3,59.93870804417625,2023-11-06 13h06.29.291479 +0100,
,,,,,,,,,,,,,,,,,8.991338671594349,41.87267705021077,,,,,,,,,,,,,,,,,,,,,,,,,,,,,,,,,,,,,,,,,,,,,,,,,136122,001,2023-11-06_13h05.17.912,Selektive Wahrnehmung,2023.2.3,59.93870804417625,2023-11-06 13h06.29.291479 +0100,
gesicht1,0,0,0,8,,,,,41.93107886587495,,,,,,,,,,41.885968847092954,41.93107886587495,43.9403710917004,44.87438712923722,3.0017883012051243,46.97815126576279,"[-300, 0]",[-0.22777777777777777],[0.06111111111111111],[1],[0],[0],[2.1032080479526485],[1],['target_find'],46.979380349507665,47.99497870507912,,,,,,,,,,,,,,,,,,,,,,,,,,,,,,,,136122,001,2023-11-06_13h05.17.912,Selektive Wahrnehmung,2023.2.3,59.93870804417625,2023-11-06 13h06.29.291479 +0100,
spinne1,0,1,1,0,,,,,48.042379353668366,,,,,,,,,,47.995459984805166,48.042379353668366,50.04618208928332,50.9969072373151,3.002004478859817,52.68320757577567,"[300, 300]",[0.21851851851851853],[0.2953703703703704],[1],[0],[0],[1.685782080977333],[1],['target_find'],52.683694544387436,53.70054786813307,,,,,,,,,,,,,,,,,,,,,,,,,,,,,,,,136122,001,2023-11-06_13h05.17.912,Selektive Wahrnehmung,2023.2.3,59.93870804417625,2023-11-06 13h06.29.291479 +0100,
gruppe1,0,2,2,6,,,,,53.7495126758331,,,,,,,,,,53.70095405456868,53.7495126758331,55.75187356337847,56.708498085832616,3.008212759772505,58.555803274920436,"[-300, 0]",[-0.20833333333333334],[-0.03981481481481482],[1],[0],[0],[1.8465007806580616],[1],['target_find'],58.55633404795208,59.573071318430266,,,,,,,,,,,,,,,,,,,,,,,,,,,,,,,,136122,001,2023-11-06_13h05.17.912,Selektive Wahrnehmung,2023.2.3,59.93870804417625,2023-11-06 13h06.29.291479 +0100,
gruppe2,0,3,3,7,,,,,59.62606641717139,,,,,,,,,,59.5735452026056,59.62606641717139,61.64148614173246,62.575117041711565,3.002122523237631,63.794857930036414,"[0, 300]",[-0.011111111111111112],[0.23148148148148148],[1],[0],[0],[1.219212959736069],[1],['target_find'],63.79535656086409,64.81174368043048,,,,,,,,,,,,,,,,,,,,,,,,,,,,,,,,136122,001,2023-11-06_13h05.17.912,Selektive Wahrnehmung,2023.2.3,59.93870804417625,2023-11-06 13h06.29.291479 +0100,
gesicht4,0,4,4,11,,,,,64.85976356422361,,,,,,,,,,64.81221415127402,64.85976356422361,66.8629811979481,67.81381528814109,3.002166043212128,69.2998787982915,"[0, -300]",[-0.03981481481481482],[-0.25555555555555554],[1],[0],[0],[1.4855250571226861],[1],['target_find'],69.30041838909528,70.31671989093229,,,,,,,,,,,,,,,,,,,,,,,,,,,,,,,,136122,001,2023-11-06_13h05.17.912,Selektive Wahrnehmung,2023.2.3,59.93870804417625,2023-11-06 13h06.29.291479 +0100,
flugzeug1,0,5,5,13,,,,,70.35378696317912,,,,,,,,,,70.31705269074337,70.35378696317912,72.36861049252366,73.31920820951746,3.002573082980234,74.47207311810962,"[0, 300]",[-0.000925925925925926],[0.20555555555555555],[1],[0],[0],[1.1523401088907121],[1],['target_find'],74.47258312670783,75.48965262810907,,,,,,,,,,,,,,,,,,,,,,,,,,,,,,,,136122,001,2023-11-06_13h05.17.912,Selektive Wahrnehmung,2023.2.3,59.93870804417625,2023-11-06 13h06.29.291479 +0100,
zug1,0,6,6,15,,,,,75.53607649503192,,,,,,,,,,75.49025536554382,75.53607649503192,77.54022767489278,78.49114766725779,3.0015715546614956,80.46162121294401,"[300, -300]",[0.35],[-0.36666666666666664],[1],[0],[0],[1.9698750749157625],[1],['target_find'],80.46226235035738,81.47825693681352,,,,,,,,,,,,,,,,,,,,,,,,,,,,,,,,136122,001,2023-11-06_13h05.17.912,Selektive Wahrnehmung,2023.2.3,59.93870804417625,2023-11-06 13h06.29.291479 +0100,
gesicht2,0,7,7,9,,,,,81.52103223692393,,,,,,,,,,81.47878600317927,81.52103223692393,83.52953939652889,84.48043236668764,3.0022576342717002,85.86640647599961,"[0, 300]",[-0.002777777777777778],[0.1935185185185185],[1],[0],[0],[1.3854737718193064],[1],['target_find'],85.86689970238604,86.88323050198414,,,,,,,,,,,,,,,,,,,,,,,,,,,,,,,,136122,001,2023-11-06_13h05.17.912,Selektive Wahrnehmung,2023.2.3,59.93870804417625,2023-11-06 13h06.29.291479 +0100,
spinne2,0,8,8,1,,,,,87.41484008400221,,,,,,,,,,86.88350356849605,87.41484008400221,89.41880921952179,89.88598306930726,3.0028407450508894,91.6060989974194,"[300, 0]",[0.21296296296296297],[0.019444444444444445],[1],[0],[0],[1.719534523997936],[1],['target_find'],91.60674098816526,92.62277056126823,,,,,,,,,,,,,,,,,,,,,,,,,,,,,,,,136122,001,2023-11-06_13h05.17.912,Selektive Wahrnehmung,2023.2.3,59.93870804417625,2023-11-06 13h06.29.291479 +0100,
gesicht3,0,9,9,10,,,,,92.72597519588999,,,,,,,,,,92.62327146764983,92.72597519588999,94.74086556964085,95.62483761787007,3.0021694565439248,96.5443890947472,"[-300, 0]",[-0.2972222222222222],[-0.013888888888888888],[1],[0],[0],[0.9189618238797266],[1],['target_find'],96.54496594775264,97.56177518263485,,,,,,,,,,,,,,,,,,,,,,,,,,,,,,,,136122,001,2023-11-06_13h05.17.912,Selektive Wahrnehmung,2023.2.3,59.93870804417625,2023-11-06 13h06.29.291479 +0100,
schlange2,0,10,10,3,,,,,97.61506553454092,,,,,,,,,,97.56260689771716,97.61506553454092,99.62903231770633,100.56308248855748,3.001370168110043,104.10157761332448,"[-300, -300]",[-0.3037037037037037],[-0.31851851851851853],[1],[0],[0],[3.53794870729962],[1],['target_find'],104.10213739967276,105.11835356822576,,,,,,,,,,,,,,,,,,,,,,,,,,,,,,,,136122,001,2023-11-06_13h05.17.912,Selektive Wahrnehmung,2023.2.3,59.93870804417625,2023-11-06 13h06.29.291479 +0100,
person2,0,11,11,5,,,,,105.15539304937647,,,,,,,,,,105.11874155022724,105.15539304937647,107.16984281893383,108.12059157584099,3.0023167986819317,109.1067166681787,"[300, 300]",[0.31574074074074077],[0.2657407407407407],[1],[0],[0],[0.9855772526498185],[1],['target_find'],109.10722753011032,110.12342663200616,,,,,,,,,,,,,,,,,,,,,,,,,,,,,,,,136122,001,2023-11-06_13h05.17.912,Selektive Wahrnehmung,2023.2.3,59.93870804417625,2023-11-06 13h06.29.291479 +0100,
person1,0,12,12,4,,,,,110.16171112578195,,,,,,,,,,110.12385472065125,110.16171112578195,112.17484050497933,113.12567004406355,3.0023204964581964,114.49553948698212,"[-300, 0]",[-0.19814814814814816],[0.04814814814814815],[1],[0],[0],[1.3692214788434285],[1],['target_find'],114.4961268644256,115.51255522841348,,,,,,,,,,,,,,,,,,,,,,,,,,,,,,,,136122,001,2023-11-06_13h05.17.912,Selektive Wahrnehmung,2023.2.3,59.93870804417625,2023-11-06 13h06.29.291479 +0100,
schlange1,0,13,13,2,,,,,115.55430112466456,,,,,,,,,,115.51314573474338,115.55430112466456,117.56379758148432,118.51439529847721,3.001912887800245,119.70146690760976,"[-300, 300]",[-0.3388888888888889],[0.24722222222222223],[1],[0],[0],[1.186551076095384],[1],['target_find'],119.70189897847558,120.71735027635168,,,,,,,,,,,,,,,,,,,,,,,,,,,,,,,,136122,001,2023-11-06_13h05.17.912,Selektive Wahrnehmung,2023.2.3,59.93870804417625,2023-11-06 13h06.29.291479 +0100,
schiff1,0,14,14,14,,,,,120.75349233579072,,,,,,,,,,120.71768705838258,120.75349233579072,122.76896354476776,123.71961815061695,3.0023526386612502,125.20590722508405,"[300, 0]",[0.3074074074074074],[-0.012037037037037037],[1],[0],[0],[1.4857295725632866],[1],['target_find'],125.20643799811569,126.2235862905818,,,,,,,,,,,,,,,,,,,,,,,,,,,,,,,,136122,001,2023-11-06_13h05.17.912,Selektive Wahrnehmung,2023.2.3,59.93870804417625,2023-11-06 13h06.29.291479 +0100,
auto1,0,15,15,12,,,,,126.27630405614673,,,,,,,,,,126.22430877906027,126.27630405614673,128.2909429811525,129.22513082303703,3.00162872796227,130.4779807414152,"[300, 300]",[0.23425925925925925],[0.19907407407407407],[1],[0],[0],[1.2523091897974155],[1],['target_find'],130.47848193224127,131.49466396747994,,,,,,,,,,,,,,,,,,,,,,,,,,,,,,,,136122,001,2023-11-06_13h05.17.912,Selektive Wahrnehmung,2023.2.3,59.93870804417625,2023-11-06 13h06.29.291479 +0100,
gesicht4,1,0,16,11,,,,,131.52906124568926,,,,,,,,,,131.49505991392107,131.52906124568926,133.52949672988598,134.49702144169441,3.002444798608849,135.6330259154338,"[0, -300]",[-0.007407407407407408],[-0.21481481481481482],[1],[0],[0],[1.1354580562729097],[1],['target_find'],135.63355498179953,136.64996798579614,,,,,,,,,,,,,,,,,,,,,,,,,,,,,,,,136122,001,2023-11-06_13h05.17.912,Selektive Wahrnehmung,2023.2.3,59.93870804417625,2023-11-06 13h06.29.291479 +0100,
gesicht1,1,1,17,8,,,,,136.68777290651178,,,,,,,,,,136.65033321225474,136.68777290651178,138.70131615213995,139.65209250014323,3.0022041587453714,140.6718312266912,"[0, -300]",[0.04814814814814815],[-0.24259259259259258],[1],[0],[0],[1.01920681574029],[1],['target_find'],140.6723767908261,141.68861173270125,,,,,,,,,,,,,,,,,,,,,,,,,,,,,,,,136122,001,2023-11-06_13h05.17.912,Selektive Wahrnehmung,2023.2.3,59.93870804417625,2023-11-06 13h06.29.291479 +0100,
gruppe1,1,2,18,6,,,,,141.7189929420838,,,,,,,,,,141.68910439019874,141.7189929420838,143.7231771174811,144.6906460782102,3.0021108610208103,146.0263557538956,"[-300, 0]",[-0.31296296296296294],[-0.002777777777777778],[1],[0],[0],[1.3351976759759054],[1],['target_find'],146.02685381583433,147.0279446596578,,,,,,,,,,,,,,,,,,,,,,,,,,,,,,,,136122,001,2023-11-06_13h05.17.912,Selektive Wahrnehmung,2023.2.3,59.93870804417625,2023-11-06 13h06.29.291479 +0100,
gruppe2,1,3,19,7,,,,,147.0788542129185,,,,,,,,,,147.02880908583302,147.0788542129185,149.07832941321703,150.02921783226702,3.0013354659067772,151.6325776312451,"[300, 0]",[0.34814814814814815],[-0.05185185185185185],[1],[0],[0],[1.602776119309965],[1],['target_find'],151.63319544422666,152.64958028823912,,,,,,,,,,,,,,,,,,,,,,,,,,,,,,,,136122,001,2023-11-06_13h05.17.912,Selektive Wahrnehmung,2023.2.3,59.93870804417625,2023-11-06 13h06.29.291479 +0100,
schlange1,1,4,20,2,,,,,152.69027459397694,,,,,,,,,,152.65007778128893,152.69027459397694,154.70075181468383,155.65155347822747,3.0020505588336164,156.83744549691983,"[-300, -300]",[-0.26944444444444443],[-0.20833333333333334],[1],[0],[0],[1.1853450323369543],[1],['target_find'],156.83794298997054,157.85532936230175,,,,,,,,,,,,,,,,,,,,,,,,,,,,,,,,136122,001,2023-11-06_13h05.17.912,Selektive Wahrnehmung,2023.2.3,59.93870804417625,2023-11-06 13h06.29.291479 +0100,
person2,1,5,21,5,,,,,157.90533381385467,,,,,,,,,,157.85614628628082,157.90533381385467,159.90593598240048,160.85677746814417,3.001534861348773,161.9596413385152,"[-300, -300]",[-0.22314814814814815],[-0.20277777777777778],[1],[0],[0],[1.1022699507084326],[1],['target_find'],161.96024976483568,162.9761900224339,,,,,,,,,,,,,,,,,,,,,,,,,,,,,,,,136122,001,2023-11-06_13h05.17.912,Selektive Wahrnehmung,2023.2.3,59.93870804417625,2023-11-06 13h06.29.291479 +0100,
spinne1,1,6,22,0,,,,,163.0145860183693,,,,,,,,,,162.9765956399815,163.0145860183693,165.0276934953563,165.9785031233405,3.002390754195403,167.0817071890733,"[300, 0]",[0.20925925925925926],[-0.04537037037037037],[1],[0],[0],[1.1024326528386155],[1],['target_find'],167.08237876202475,168.09804623755554,,,,,,,,,,,,,,,,,,,,,,,,,,,,,,,,136122,001,2023-11-06_13h05.17.912,Selektive Wahrnehmung,2023.2.3,59.93870804417625,2023-11-06 13h06.29.291479 +0100,
auto1,1,7,23,12,,,,,168.13656511342106,,,,,,,,,,168.09845384621258,168.13656511342106,170.14937420835577,171.10023020075823,3.00226360760189,172.30318887640806,"[300, 300]",[0.23981481481481481],[0.20185185185185187],[1],[0],[0],[1.2023823915333196],[1],['target_find'],172.30377426274208,173.31993468021483,,,,,,,,,,,,,,,,,,,,,,,,,,,,,,,,136122,001,2023-11-06_13h05.17.912,Selektive Wahrnehmung,2023.2.3,59.93870804417625,2023-11-06 13h06.29.291479 +0100,
person1,1,8,24,4,,,,,173.35975858644815,,,,,,,,,,173.32042307104803,173.35975858644815,175.3714307575865,176.32214168340397,3.00228294981207,177.50824362197727,"[300, -300]",[0.33796296296296297],[-0.22962962962962963],[1],[0],[0],[1.185519396682139],[1],['target_find'],177.50880852832233,178.52516123013083,,,,,,,,,,,,,,,,,,,,,,,,,,,,,,,,136122,001,2023-11-06_13h05.17.912,Selektive Wahrnehmung,2023.2.3,59.93870804417625,2023-11-06 13h06.29.291479 +0100,
schlange2,1,9,25,3,,,,,178.56078218764378,,,,,,,,,,178.52563682097116,178.56078218764378,180.55990439258767,181.52728972669775,3.002203589857345,182.81375214151012,"[300, -300]",[0.22870370370370371],[-0.2324074074074074],[1],[0],[0],[1.2859583795434446],[1],['target_find'],182.8142490656719,183.830391563155,,,,,,,,,,,,,,,,,,,,,,,,,,,,,,,,136122,001,2023-11-06_13h05.17.912,Selektive Wahrnehmung,2023.2.3,59.93870804417625,2023-11-06 13h06.29.291479 +0100,
flugzeug1,1,10,26,13,,,,,183.87070784244133,,,,,,,,,,183.8308020162549,183.87070784244133,185.88174428060756,186.8325140863917,3.002203020968409,187.83645420859466,"[0, -300]",[-0.017592592592592594],[-0.22685185185185186],[1],[0],[0],[1.0034306824927626],[1],['target_find'],187.83698384384934,188.85212680412315,,,,,,,,,,,,,,,,,,,,,,,,,,,,,,,,136122,001,2023-11-06_13h05.17.912,Selektive Wahrnehmung,2023.2.3,59.93870804417625,2023-11-06 13h06.29.291479 +0100,
spinne2,1,11,27,1,,,,,189.06163395604835,,,,,,,,,,188.85253668833502,189.06163395604835,191.07041133772145,191.85447659834244,3.0024271630636576,193.1738179277836,"[-300, -300]",[-0.17777777777777778],[-0.18611111111111112],[1],[0],[0],[1.3188085653000599],[1],['target_find'],193.1743179808327,194.19065503820548,,,,,,,,,,,,,,,,,,,,,,,,,,,,,,,,136122,001,2023-11-06_13h05.17.912,Selektive Wahrnehmung,2023.2.3,59.93870804417625,2023-11-06 13h06.29.291479 +0100,
gesicht3,1,12,28,10,,,,,194.22904506080977,,,,,,,,,,194.19102140244104,194.22904506080977,196.24235221768413,197.19301763241674,3.0024470741636833,197.94517421785622,"[-300, -300]",[-0.21666666666666667],[-0.19722222222222222],[1],[0],[0],[0.751613865748368],[1],['target_find'],197.94567967534658,198.9621034882257,,,,,,,,,,,,,,,,,,,,,,,,,,,,,,,,136122,001,2023-11-06_13h05.17.912,Selektive Wahrnehmung,2023.2.3,59.93870804417625,2023-11-06 13h06.29.291479 +0100,
schiff1,1,13,29,14,,,,,199.0046057218242,,,,,,,,,,198.96251906132238,199.0046057218242,201.01357339672268,201.96448855353538,3.0025193230112563,203.08464720517895,"[300, 0]",[0.22870370370370371],[-0.07314814814814814],[1],[0],[0],[1.1193741543111173],[1],['target_find'],203.08554206689132,204.10165924883404,,,,,,,,,,,,,,,,,,,,,,,,,,,,,,,,136122,001,2023-11-06_13h05.17.912,Selektive Wahrnehmung,2023.2.3,59.93870804417625,2023-11-06 13h06.29.291479 +0100,
gesicht2,1,14,30,9,,,,,204.1523310066741,,,,,,,,,,204.10251371945924,204.1523310066741,206.15221410007416,207.10280243040597,3.00120746597986,208.20571863852456,"[-300, 0]",[-0.1398148148148148],[-0.02962962962962963],[1],[0],[0],[1.1023646706553336],[1],['target_find'],208.20628070042676,209.22234867350835,,,,,,,,,,,,,,,,,,,,,,,,,,,,,,,,136122,001,2023-11-06_13h05.17.912,Selektive Wahrnehmung,2023.2.3,59.93870804417625,2023-11-06 13h06.29.291479 +0100,
zug1,1,15,31,15,,,,,209.26647337729537,,,,,,,,,,209.22276026438522,209.26647337729537,211.27381374645302,212.22469107217603,3.0024331363938472,213.0939636087678,"[0, 300]",[0.03518518518518519],[0.18425925925925926],[1],[0],[0],[0.8687383502292505],[1],['target_find'],213.0944713418121,214.1106789770356,,,,,,,,,,,,,,,,,,,,,,,,,,,,,,,,136122,001,2023-11-06_13h05.17.912,Selektive Wahrnehmung,2023.2.3,59.93870804417625,2023-11-06 13h06.29.291479 +0100,
schlange2,2,0,32,3,,,,,214.1525773354224,,,,,,,,,,214.1110894301355,214.1525773354224,216.1621975255057,217.11286322468186,3.0022655987113467,218.0988062726792,"[0, -300]",[0.001851851851851852],[-0.20555555555555555],[1],[0],[0],[0.9853474216688483],[1],['target_find'],218.09936549013855,219.1156240408891,,,,,,,,,,,,,,,,,,,,,,,,,,,,,,,,136122,001,2023-11-06_13h05.17.912,Selektive Wahrnehmung,2023.2.3,59.93870804417625,2023-11-06 13h06.29.291479 +0100,
gesicht4,2,1,33,11,,,,,219.1535598059745,,,,,,,,,,219.1160293739922,219.1535598059745,221.16720573598923,222.1177843952164,3.0022564964938283,223.03709637000702,"[0, 300]",[0.040740740740740744],[0.21574074074074073],[1],[0],[0],[0.9186921706996145],[1],['target_find'],223.0376678185712,224.05374802275674,,,,,,,,,,,,,,,,,,,,,,,,,,,,,,,,136122,001,2023-11-06_13h05.17.912,Selektive Wahrnehmung,2023.2.3,59.93870804417625,2023-11-06 13h06.29.291479 +0100,
person1,2,2,34,4,,,,,224.0915151123827,,,,,,,,,,224.05412092921142,224.0915151123827,226.10544662445682,227.0561885547013,3.0025235896755476,228.05874371769278,"[300, -300]",[0.3194444444444444],[-0.33055555555555555],[1],[0],[0],[1.0020107366344746],[1],['target_find'],228.05924177963152,229.07546705040113,,,,,,,,,,,,,,,,,,,,,,,,,,,,,,,,136122,001,2023-11-06_13h05.17.912,Selektive Wahrnehmung,2023.2.3,59.93870804417625,2023-11-06 13h06.29.291479 +0100,
zug1,2,3,35,15,,,,,229.11520363224008,,,,,,,,,,229.07588603682962,229.11520363224008,231.12708145659326,232.0776612535974,3.002272994262057,233.3640682017749,"[-300, -300]",[-0.21574074074074073],[-0.22037037037037038],[1],[0],[0],[1.2858087618515128],[1],['target_find'],233.36466069921516,234.3810500943364,,,,,,,,,,,,,,,,,,,,,,,,,,,,,,,,136122,001,2023-11-06_13h05.17.912,Selektive Wahrnehmung,2023.2.3,59.93870804417625,2023-11-06 13h06.29.291479 +0100,
spinne2,2,4,36,1,,,,,234.57630260548103,,,,,,,,,,234.38154474294333,234.57630260548103,236.58251230861515,237.38337656412386,3.0024479274961777,239.00377059341008,"[0, 300]",[0.010185185185185186],[0.2064814814814815],[1],[0],[0],[1.6196268830562985],[1],['target_find'],239.0046458284678,240.02000894861703,,,,,,,,,,,,,,,,,,,,,,,,,,,,,,,,136122,001,2023-11-06_13h05.17.912,Selektive Wahrnehmung,2023.2.3,59.93870804417625,2023-11-06 13h06.29.291479 +0100,
auto1,2,5,37,12,,,,,240.0660758379654,,,,,,,,,,240.0204885216781,240.0660758379654,242.07111419954435,243.022188929599,3.0022607631581195,244.8087134954876,"[-300, -300]",[-0.22407407407407406],[-0.22962962962962963],[1],[0],[0],[1.7859206906769032],[1],['target_find'],244.80923431296924,245.82551163704193,,,,,,,,,,,,,,,,,,,,,,,,,,,,,,,,136122,001,2023-11-06_13h05.17.912,Selektive Wahrnehmung,2023.2.3,59.93870804417625,2023-11-06 13h06.29.291479 +0100,
gruppe1,2,6,38,6,,,,,245.8665666181314,,,,,,,,,,245.82592294347523,245.8665666181314,247.8771911809754,248.82797008897705,3.00253809633341,250.2807021336448,"[-300, -300]",[-0.21574074074074073],[-0.22962962962962963],[1],[0],[0],[1.4521748183178715],[1],['target_find'],250.2812124266884,251.29771531507777,,,,,,,,,,,,,,,,,,,,,,,,,,,,,,,,136122,001,2023-11-06_13h05.17.912,Selektive Wahrnehmung,2023.2.3,59.93870804417625,2023-11-06 13h06.29.291479 +0100,
gesicht1,2,7,39,8,,,,,251.33612979989084,,,,,,,,,,251.29810415041175,251.33612979989084,253.34910301917716,254.29997949156768,3.0023443897780453,255.7033590309784,"[300, -300]",[0.20185185185185187],[-0.1824074074074074],[1],[0],[0],[1.4027585975418333],[1],['target_find'],255.7040306039289,256.72007724368905,,,,,,,,,,,,,,,,,,,,,,,,,,,,,,,,136122,001,2023-11-06_13h05.17.912,Selektive Wahrnehmung,2023.2.3,59.93870804417625,2023-11-06 13h06.29.291479 +0100,
flugzeug1,2,8,40,13,,,,,256.7519395544523,,,,,,,,,,256.720547430089,256.7519395544523,258.75451064632307,259.7220017937061,3.00199964330659,261.19166054874404,"[-300, -300]",[-0.24722222222222223],[-0.17592592592592593],[1],[0],[0],[1.4690750753707107],[1],['target_find'],261.1921566195733,262.20865581018734,,,,,,,,,,,,,,,,,,,,,,,,,,,,,,,,136122,001,2023-11-06_13h05.17.912,Selektive Wahrnehmung,2023.2.3,59.93870804417625,2023-11-06 13h06.29.291479 +0100,
gesicht2,2,9,41,9,,,,,262.24461212750975,,,,,,,,,,262.2091308321387,262.24461212750975,264.2601251497954,265.21083436894787,3.0022562120493603,266.76364671223655,"[-300, 0]",[-0.19814814814814816],[-0.009259259259259259],[1],[0],[0],[1.5522923791404537],[1],['target_find'],266.7641706586055,267.7808308446829,,,,,,,,,,,,,,,,,,,,,,,,,,,,,,,,136122,001,2023-11-06_13h05.17.912,Selektive Wahrnehmung,2023.2.3,59.93870804417625,2023-11-06 13h06.29.291479 +0100,
schiff1,2,10,42,14,,,,,267.8203082977798,,,,,,,,,,267.78123987556137,267.8203082977798,269.83231867316954,270.7831732433506,3.0024300075065185,271.71889594658387,"[300, -300]",[0.25833333333333336],[-0.20833333333333334],[1],[0],[0],[0.9351401613421331],[1],['target_find'],271.71940623962655,272.7358823902532,,,,,,,,,,,,,,,,,,,,,,,,,,,,,,,,136122,001,2023-11-06_13h05.17.912,Selektive Wahrnehmung,2023.2.3,59.93870804417625,2023-11-06 13h06.29.291479 +0100,
spinne1,2,11,43,0,,,,,272.7780990417923,,,,,,,,,,272.7363574122055,272.7780990417923,274.78718248551377,275.7380262468114,3.0022189498486114,276.6741224253883,"[0, 300]",[-0.008333333333333333],[0.21203703703703702],[1],[0],[0],[0.9355901521976193],[1],['target_find'],276.6746190651056,277.69085855808953,,,,,,,,,,,,,,,,,,,,,,,,,,,,,,,,136122,001,2023-11-06_13h05.17.912,Selektive Wahrnehmung,2023.2.3,59.93870804417625,2023-11-06 13h06.29.291479 +0100,
gruppe2,2,12,44,7,,,,,277.73126984176633,,,,,,,,,,277.69128579340213,277.73126984176633,279.7422004666596,280.69295917911677,3.0021785587605336,281.8292480971386,"[0, -300]",[-0.06111111111111111],[-0.29259259259259257],[1],[0],[0],[1.1357743583148476],[1],['target_find'],281.8297757412829,282.84603742092077,,,,,,,,,,,,,,,,,,,,,,,,,,,,,,,,136122,001,2023-11-06_13h05.17.912,Selektive Wahrnehmung,2023.2.3,59.93870804417625,2023-11-06 13h06.29.291479 +0100,
person2,2,13,45,5,,,,,282.89229346571756,,,,,,,,,,282.84655766951346,282.89229346571756,284.89746466277575,285.8481448686107,3.002187092089116,287.3025050723527,"[300, 300]",[0.18981481481481483],[0.16203703703703703],[1],[0],[0],[1.4536928974548573],[1],['target_find'],287.30361127616743,288.3177131703678,,,,,,,,,,,,,,,,,,,,,,,,,,,,,,,,136122,001,2023-11-06_13h05.17.912,Selektive Wahrnehmung,2023.2.3,59.93870804417625,2023-11-06 13h06.29.291479 +0100,
schlange1,2,14,46,2,,,,,288.34518337696227,,,,,,,,,,288.31799192576455,288.34518337696227,290.3527641015389,291.3202919422338,3.0026695095930336,293.0402201371189,"[300, -300]",[0.19444444444444445],[-0.17685185185185184],[1],[0],[0],[1.719331146336117],[1],['target_find'],293.04077366569345,294.0570723230876,,,,,,,,,,,,,,,,,,,,,,,,,,,,,,,,136122,001,2023-11-06_13h05.17.912,Selektive Wahrnehmung,2023.2.3,59.93870804417625,2023-11-06 13h06.29.291479 +0100,
gesicht3,2,15,47,10,,,,,294.0995395700402,,,,,,,,,,294.05748988729465,294.0995395700402,296.10854649824887,297.0594957883759,3.0025452074414716,297.89594999697056,"[0, 300]",[0.025925925925925925],[0.19814814814814816],[1],[0],[0],[0.8357268845638828],[1],['target_find'],297.8967632231743,298.9127964940535,,,,,,,,,,,,,,,,,,,,,,,,,,,,,,,,136122,001,2023-11-06_13h05.17.912,Selektive Wahrnehmung,2023.2.3,59.93870804417625,2023-11-06 13h06.29.291479 +0100,
person1,3,0,48,4,,,,,298.9602998270293,,,,,,,,,,298.91367400466515,298.9602998270293,300.9633715408372,301.91422867101664,3.0014879280424793,302.78296815902286,"[300, 0]",[0.30833333333333335],[0.013888888888888888],[1],[0],[0],[0.8682448393983577],[1],['target_find'],302.7834830031743,303.8004361668627,,,,,,,,,,,,,,,,,,,,,,,,,,,,,,,,136122,001,2023-11-06_13h05.17.912,Selektive Wahrnehmung,2023.2.3,59.93870804417625,2023-11-06 13h06.29.291479 +0100,
gesicht2,3,1,49,9,,,,,303.841150099257,,,,,,,,,,303.8009089132611,303.841150099257,305.85163414662566,306.802367259098,3.0020098833010707,307.5546794355605,"[300, 0]",[0.23425925925925925],[0.012037037037037037],[1],[0],[0],[0.7517415812317267],[1],['target_find'],307.5551777819437,308.57153162152827,,,,,,,,,,,,,,,,,,,,,,,,,,,,,,,,136122,001,2023-11-06_13h05.17.912,Selektive Wahrnehmung,2023.2.3,59.93870804417625,2023-11-06 13h06.29.291479 +0100,
spinne2,3,2,50,1,,,,,308.76464795611173,,,,,,,,,,308.5719400835187,308.76464795611173,310.77310761352146,311.57413371782604,3.002683731806428,312.96013513378966,"[300, 300]",[0.2175925925925926],[0.18981481481481483],[1],[0],[0],[1.3854527229423184],[1],['target_find'],312.9606499779411,313.9766610621664,,,,,,,,,,,,,,,,,,,,,,,,,,,,,,,,136122,001,2023-11-06_13h05.17.912,Selektive Wahrnehmung,2023.2.3,59.93870804417625,2023-11-06 13h06.29.291479 +0100,
schiff1,3,3,51,14,,,,,314.00908116816754,,,,,,,,,,313.9769716753226,314.00908116816754,316.0118172377215,316.97923727403395,3.0026618295969456,318.1656026080127,"[300, 0]",[0.175],[0.01574074074074074],[1],[0],[0],[1.1857711298725917],[1],['target_find'],318.1662502876443,319.18210748751244,,,,,,,,,,,,,,,,,,,,,,,,,,,,,,,,136122,001,2023-11-06_13h05.17.912,Selektive Wahrnehmung,2023.2.3,59.93870804417625,2023-11-06 13h06.29.291479 +0100,
zug1,3,4,52,15,,,,,319.22504947197194,,,,,,,,,,319.182484945075,319.22504947197194,321.2337318492546,322.1844339572999,3.002409243073089,323.32173976363265,"[-300, 0]",[-0.24722222222222223],[-0.040740740740740744],[1],[0],[0],[1.1365415045447662],[1],['target_find'],323.3227654697157,324.33709150601044,,,,,,,,,,,,,,,,,,,,,,,,,,,,,,,,136122,001,2023-11-06_13h05.17.912,Selektive Wahrnehmung,2023.2.3,59.93870804417625,2023-11-06 13h06.29.291479 +0100,
flugzeug1,3,5,53,13,,,,,324.3686412125062,,,,,,,,,,324.3373750969604,324.3686412125062,326.3722104193648,327.33963529122957,3.0026154651786783,329.17630624636786,"[300, 300]",[0.23333333333333334],[0.25277777777777777],[1],[0],[0],[1.8361086087916192],[1],['target_find'],329.1768796860415,330.19301592575084,,,,,,,,,,,,,,,,,,,,,,,,,,,,,,,,136122,001,2023-11-06_13h05.17.912,Selektive Wahrnehmung,2023.2.3,59.93870804417625,2023-11-06 13h06.29.291479 +0100,
gruppe1,3,6,54,6,,,,,330.22728520403325,,,,,,,,,,330.1933985033111,330.22728520403325,332.22787485703157,333.19533699109707,3.00241493195972,334.84884630821216,"[0, 300]",[-0.08333333333333333],[0.2657407407407407],[1],[0],[0],[1.652905726346944],[1],['target_find'],334.84945701008655,335.8655713475864,,,,,,,,,,,,,,,,,,,,,,,,,,,,,,,,136122,001,2023-11-06_13h05.17.912,Selektive Wahrnehmung,2023.2.3,59.93870804417625,2023-11-06 13h06.29.291479 +0100,
person2,3,7,55,5,,,,,335.90731667494856,,,,,,,,,,335.8660514895355,335.90731667494856,337.91710610937935,338.8677837552168,3.002289776474754,339.9533309421049,"[300, -300]",[0.2388888888888889],[-0.2175925925925926],[1],[0],[0],[1.0850130005264873],[1],['target_find'],339.9538312795985,340.9704980078941,,,,,,,,,,,,,,,,,,,,,,,,,,,,,,,,136122,001,2023-11-06_13h05.17.912,Selektive Wahrnehmung,2023.2.3,59.93870804417625,2023-11-06 13h06.29.291479 +0100,
gruppe2,3,8,56,7,,,,,341.0066252762308,,,,,,,,,,340.9708598210218,341.0066252762308,343.0219852674927,343.9728671443245,3.002450203051012,345.69406765848635,"[-300, 0]",[-0.19166666666666668],[-0.062037037037037036],[1],[0],[0],[1.7205283723214961],[1],['target_find'],345.6949263957749,346.70965036962116,,,,,,,,,,,,,,,,,,,,,,,,,,,,,,,,136122,001,2023-11-06_13h05.17.912,Selektive Wahrnehmung,2023.2.3,59.93870804417625,2023-11-06 13h06.29.291479 +0100,
auto1,3,9,57,12,,,,,346.7450978161223,,,,,,,,,,346.710040342733,346.7450978161223,348.7445201097844,349.712011541611,3.00249656746837,351.34830970407256,"[-300, 300]",[-0.23055555555555557],[0.21203703703703702],[1],[0],[0],[1.6356610072689364],[1],['target_find'],351.34887261930817,352.3652116677904,,,,,,,,,,,,,,,,,,,,,,,,,,,,,,,,136122,001,2023-11-06_13h05.17.912,Selektive Wahrnehmung,2023.2.3,59.93870804417625,2023-11-06 13h06.29.291479 +0100,
schlange1,3,10,58,2,,,,,352.40364976147885,,,,,,,,,,352.36558827202134,352.40364976147885,354.41656865190726,355.36770339970644,3.0025722296477397,356.5037516778657,"[0, 300]",[-0.021296296296296296],[0.18425925925925926],[1],[0],[0],[1.1355803673141054],[1],['target_find'],356.50422186426476,357.5205048772241,,,,,,,,,,,,,,,,,,,,,,,,,,,,,,,,136122,001,2023-11-06_13h05.17.912,Selektive Wahrnehmung,2023.2.3,59.93870804417625,2023-11-06 13h06.29.291479 +0100,
gesicht1,3,11,59,8,,,,,357.5642268079064,,,,,,,,,,357.5209773391771,357.5642268079064,359.5719912834893,360.5227187070759,3.0022920520295884,361.45835892146715,"[0, 300]",[-0.010185185185185186],[0.1787037037037037],[1],[0],[0],[0.9350721791588512],[1],['target_find'],361.4589090367099,362.4759930447681,,,,,,,,,,,,,,,,,,,,,,,,,,,,,,,,136122,001,2023-11-06_13h05.17.912,Selektive Wahrnehmung,2023.2.3,59.93870804417625,2023-11-06 13h06.29.291479 +0100,
schlange2,3,12,60,3,,,,,362.51254783286186,,,,,,,,,,362.4766757110465,362.51254783286186,364.52687756693194,365.47768605713827,3.0017524612248963,366.53073349362694,"[-300, -300]",[-0.2657407407407407],[-0.22777777777777777],[1],[0],[0],[1.052542547887242],[1],['target_find'],366.5312500444443,367.5471191909719,,,,,,,,,,,,,,,,,,,,,,,,,,,,,,,,136122,001,2023-11-06_13h05.17.912,Selektive Wahrnehmung,2023.2.3,59.93870804417625,2023-11-06 13h06.29.291479 +0100,
gesicht4,3,13,61,11,,,,,367.5865696218625,,,,,,,,,,367.547524524075,367.5865696218625,369.5983769040349,370.5493827985738,3.0023426831112374,371.95317222219546,"[0, 300]",[-0.03796296296296296],[0.1787037037037037],[1],[0],[0],[1.4031141528948865],[1],['target_find'],371.95400820394207,372.96921743973417,,,,,,,,,,,,,,,,,,,,,,,,,,,,,,,,136122,001,2023-11-06_13h05.17.912,Selektive Wahrnehmung,2023.2.3,59.93870804417625,2023-11-06 13h06.29.291479 +0100,
gesicht3,3,14,62,10,,,,,373.00771555116626,,,,,,,,,,372.9696284617221,373.00771555116626,375.0208076681629,375.97148332288907,3.002349509774831,377.4409074113946,"[-300, 300]",[-0.1935185185185185],[0.21851851851851853],[1],[0],[0],[1.468886488811222],[1],['target_find'],377.4414185577707,378.45801872610537,,,,,,,,,,,,,,,,,,,,,,,,,,,,,,,,136122,001,2023-11-06_13h05.17.912,Selektive Wahrnehmung,2023.2.3,59.93870804417625,2023-11-06 13h06.29.291479 +0100,
spinne1,3,15,63,0,,,,,378.488816361918,,,,,,,,,,378.4584069925504,378.488816361918,380.4928440929598,381.4601739604341,3.002236300950244,382.79648694244315,"[0, -300]",[-0.07314814814814814],[-0.22592592592592592],[1],[0],[0],[1.335780786756004],[1],['target_find'],382.7969850043819,383.81337838172294,,,,,,,,,,,,,,,,,,,,,,,,,,,,,,,,136122,001,2023-11-06_13h05.17.912,Selektive Wahrnehmung,2023.2.3,59.93870804417625,2023-11-06 13h06.29.291479 +0100,
zug1,4,0,64,15,,,,,383.849991765338,,,,,,,,,,383.81375356373155,383.849991765338,385.86498880569525,386.81559477157316,3.0022960342494116,388.16877700620716,"[-300, 300]",[-0.19722222222222222],[0.24814814814814815],[1],[0],[0],[1.3525792127547902],[1],['target_find'],388.1694244013943,389.1854411745044,,,,,,,,,,,,,,,,,,,,,,,,,,,,,,,,136122,001,2023-11-06_13h05.17.912,Selektive Wahrnehmung,2023.2.3,59.93870804417625,2023-11-06 13h06.29.291479 +0100,
spinne2,4,1,65,1,,,,,389.36225742947136,,,,,,,,,,389.1858155031805,389.36225742947136,391.37019456273356,392.18772924431414,3.0023671453200222,393.45712073550476,"[0, -300]",[-0.014814814814814815],[-0.2064814814814815],[1],[0],[0],[1.2688573048271792],[1],['target_find'],393.45761851299903,394.47391489483925,,,,,,,,,,,,,,,,,,,,,,,,,,,,,,,,136122,001,2023-11-06_13h05.17.912,Selektive Wahrnehmung,2023.2.3,59.93870804417625,2023-11-06 13h06.29.291479 +0100,
schiff1,4,2,66,14,,,,,394.51098310486304,,,,,,,,,,394.4742863790725,394.51098310486304,396.52541324776485,397.47624449351406,3.002412087516859,398.86271296699033,"[300, 300]",[0.23333333333333334],[0.17314814814814813],[1],[0],[0],[1.3859957270778978],[1],['target_find'],398.8631879889417,399.87934783752644,,,,,,,,,,,,,,,,,,,,,,,,,,,,,,,,136122,001,2023-11-06_13h05.17.912,Selektive Wahrnehmung,2023.2.3,59.93870804417625,2023-11-06 13h06.29.291479 +0100,
person1,4,3,67,4,,,,,399.92035702308567,,,,,,,,,,399.87976085062473,399.92035702308567,401.93092128374246,402.8815079074093,3.0022380076161426,404.5524320412833,"[300, -300]",[0.18333333333333332],[-0.18518518518518517],[1],[0],[0],[1.670152436535318],[1],['target_find'],404.55318468085534,405.56854950766956,,,,,,,,,,,,,,,,,,,,,,,,,,,,,,,,136122,001,2023-11-06_13h05.17.912,Selektive Wahrnehmung,2023.2.3,59.93870804417625,2023-11-06 13h06.29.291479 +0100,
gesicht2,4,4,68,9,,,,,405.61328861110724,,,,,,,,,,405.56902708962025,405.61328861110724,407.61981006517453,408.5707400130905,3.002267020932777,409.6729488082783,"[300, -300]",[0.18425925925925926],[-0.2222222222222222],[1],[0],[0],[1.1016908221490667],[1],['target_find'],409.67341984800987,410.68983654978183,,,,,,,,,,,,,,,,,,,,,,,,,,,,,,,,136122,001,2023-11-06_13h05.17.912,Selektive Wahrnehmung,2023.2.3,59.93870804417625,2023-11-06 13h06.29.291479 +0100,
schlange1,4,5,69,2,,,,,410.7189434487791,,,,,,,,,,410.6901249762841,410.7189434487791,412.7249742364593,413.6924665216193,3.0027135984564666,415.2789010324477,"[0, 300]",[0.044444444444444446],[0.23425925925925925],[1],[0],[0],[1.5858920755808867],[1],['target_find'],415.2794181521531,416.29656872017404,,,,,,,,,,,,,,,,,,,,,,,,,,,,,,,,136122,001,2023-11-06_13h05.17.912,Selektive Wahrnehmung,2023.2.3,59.93870804417625,2023-11-06 13h06.29.291479 +0100,
spinne1,4,6,70,0,,,,,416.34167532562515,,,,,,,,,,416.29728921754213,416.34167532562515,418.34724588245535,419.29804043489276,3.0015365680146715,420.266870177069,"[-300, 300]",[-0.21944444444444444],[0.25925925925925924],[1],[0],[0],[0.9683060802526597],[1],['target_find'],420.2673861589983,421.28410380282094,,,,,,,,,,,,,,,,,,,,,,,,,,,,,,,,136122,001,2023-11-06_13h05.17.912,Selektive Wahrnehmung,2023.2.3,59.93870804417625,2023-11-06 13h06.29.291479 +0100,
person2,4,7,71,5,,,,,421.32284625189186,,,,,,,,,,421.28450828259065,421.32284625189186,423.33577623564724,424.28633299266403,3.0023054209104885,425.9901269389502,"[0, -300]",[0.008333333333333333],[-0.17592592592592593],[1],[0],[0],[1.7032202221680564],[1],['target_find'],425.99079566745877,427.0064730985396,,,,,,,,,,,,,,,,,,,,,,,,,,,,,,,,136122,001,2023-11-06_13h05.17.912,Selektive Wahrnehmung,2023.2.3,59.93870804417625,2023-11-06 13h06.29.291479 +0100,
flugzeug1,4,8,72,13,,,,,427.0491192609452,,,,,,,,,,427.00688639608234,427.0491192609452,429.0578445893152,430.0091650792301,3.0029411538826025,431.2795922320538,"[300, -300]",[0.18703703703703703],[-0.21851851851851853],[1],[0],[0],[1.2695635799818774],[1],['target_find'],431.2804418671267,432.29519570762204,,,,,,,,,,,,,,,,,,,,,,,,,,,,,,,,136122,001,2023-11-06_13h05.17.912,Selektive Wahrnehmung,2023.2.3,59.93870804417625,2023-11-06 13h06.29.291479 +0100,
schlange2,4,9,73,3,,,,,432.335604146856,,,,,,,,,,432.29562521848857,432.335604146856,434.34674924273804,435.29734695973184,3.0022439809454227,436.63368554172575,"[-300, 0]",[-0.19537037037037036],[-0.03333333333333333],[1],[0],[0],[1.3357856223083218],[1],['target_find'],436.6342003858772,437.65053146991977,,,,,,,,,,,,,,,,,,,,,,,,,,,,,,,,136122,001,2023-11-06_13h05.17.912,Selektive Wahrnehmung,2023.2.3,59.93870804417625,2023-11-06 13h06.29.291479 +0100,
gesicht1,4,10,74,8,,,,,437.6884871461052,,,,,,,,,,437.6509359496895,437.6884871461052,439.7020921161429,440.65275895309696,3.0023059897994244,442.33924844700505,"[-300, 300]",[-0.17592592592592593],[0.1787037037037037],[1],[0],[0],[1.6859325520035782],[1],['target_find'],442.3397547578288,443.3562198151285,,,,,,,,,,,,,,,,,,,,,,,,,,,,,,,,136122,001,2023-11-06_13h05.17.912,Selektive Wahrnehmung,2023.2.3,59.93870804417625,2023-11-06 13h06.29.291479 +0100,
gruppe1,4,11,75,6,,,,,443.3938995803592,,,,,,,,,,443.35663055267287,443.3938995803592,445.40749999928903,446.35843165386996,3.002289207585818,447.8782734914712,"[300, 0]",[0.36574074074074076],[-0.011111111111111112],[1],[0],[0],[1.5192527534918554],[1],['target_find'],447.8788841933456,448.8949328242161,,,,,,,,,,,,,,,,,,,,,,,,,,,,,,,,136122,001,2023-11-06_13h05.17.912,Selektive Wahrnehmung,2023.2.3,59.93870804417625,2023-11-06 13h06.29.291479 +0100,
auto1,4,12,76,12,,,,,448.93422681075117,,,,,,,,,,448.89534782842475,448.93422681075117,450.94644909713134,451.89733211174007,3.002511074127142,452.98349369827883,"[0, 300]",[-0.05462962962962963],[0.16666666666666666],[1],[0],[0],[1.085573071318322],[1],['target_find'],452.98404637351996,454.0000969955008,,,,,,,,,,,,,,,,,,,,,,,,,,,,,,,,136122,001,2023-11-06_13h05.17.912,Selektive Wahrnehmung,2023.2.3,59.93870804417625,2023-11-06 13h06.29.291479 +0100,
gesicht4,4,13,77,11,,,,,454.0399271595079,,,,,,,,,,454.0004994841602,454.0399271595079,456.05153874401367,457.00245475415886,3.002438540835101,458.1420056792149,"[-300, 0]",[-0.30925925925925923],[0.021296296296296296],[1],[0],[0],[1.1381810413904532],[1],['target_find'],458.1440502647183,459.1553048716487,,,,,,,,,,,,,,,,,,,,,,,,,,,,,,,,136122,001,2023-11-06_13h05.17.912,Selektive Wahrnehmung,2023.2.3,59.93870804417625,2023-11-06 13h06.29.291479 +0100,
gruppe2,4,14,78,7,,,,,459.187565404407,,,,,,,,,,459.15571987585736,459.187565404407,461.1899991096898,462.15741118156166,3.0021845320907232,463.5939950398606,"[-300, 300]",[-0.15648148148148147],[0.18888888888888888],[1],[0],[0],[1.4360172452879851],[1],['target_find'],463.59448399958274,464.61051670157303,,,,,,,,,,,,,,,,,,,,,,,,,,,,,,,,136122,001,2023-11-06_13h05.17.912,Selektive Wahrnehmung,2023.2.3,59.93870804417625,2023-11-06 13h06.29.291479 +0100,
gesicht3,4,15,79,10,,,,,464.64451774889676,,,,,,,,,,464.6108327191705,464.64451774889676,466.6454532861426,467.61285113580016,3.0024157852922144,469.0657717670274,"[0, -300]",[-0.025925925925925925],[-0.18518518518518517],[1],[0],[0],[1.452403795965438],[1],['target_find'],469.0662544689749,470.0832099082181,,,,,,,,,,,,,,,,,,,,,,,,,,,,,,,,136122,001,2023-11-06_13h05.17.912,Selektive Wahrnehmung,2023.2.3,59.93870804417625,2023-11-06 13h06.29.291479 +0100,
,,,,,0,0,0,0,476.30785831375215,,,,,,,,,,,,,,,,,,,,,,,,,,,470.09844303733007,474.4872189228263,474.48723257615256,476.2561628409385,476.2571259692795,487.2581983242253,1.0,3.0,gruppe2,,,,,,,,,,,,,,,,,,,,,,,136122,001,2023-11-06_13h05.17.912,Selektive Wahrnehmung,2023.2.3,59.93870804417625,2023-11-06 13h06.29.291479 +0100,
,,,,,1,0,1,0,487.2929594066718,,,,,,,,,,,,,,,,,,,,,,,,,,,,,,,487.2585433551394,494.20304998226493,1.0,3.0,schiff1,,,,,,,,,,,,,,,,,,,,,,,136122,001,2023-11-06_13h05.17.912,Selektive Wahrnehmung,2023.2.3,59.93870804417625,2023-11-06 13h06.29.291479 +0100,
,,,,,2,0,2,0,494.2425601464547,,,,,,,,,,,,,,,,,,,,,,,,,,,,,,,494.20379152851,501.878602024618,1.0,3.0,flugzeug1,,,,,,,,,,,,,,,,,,,,,,,136122,001,2023-11-06_13h05.17.912,Selektive Wahrnehmung,2023.2.3,59.93870804417625,2023-11-06 13h06.29.291479 +0100,
,,,,,3,0,3,0,501.9128323340328,,,,,,,,,,,,,,,,,,,,,,,,,,,,,,,501.8794050108272,506.4685522667796,1.0,3.0,gesicht1,,,,,,,,,,,,,,,,,,,,,,,136122,001,2023-11-06_13h05.17.912,Selektive Wahrnehmung,2023.2.3,59.93870804417625,2023-11-06 13h06.29.291479 +0100,
,,,,,4,0,4,0,506.5005255108126,,,,,,,,,,,,,,,,,,,,,,,,,,,,,,,506.4688563377176,514.4455777020712,1.0,4.0,schlange2,,,,,,,,,,,,,,,,,,,,,,,136122,001,2023-11-06_13h05.17.912,Selektive Wahrnehmung,2023.2.3,59.93870804417625,2023-11-06 13h06.29.291479 +0100,
,,,,,,,,,,,,,,,,,,,,,,,,,,,,,,,,,,,,,,,,,,,,,514.4498437974225,522.5210840057835,21 ,2.0,522.5211033479945,534.5054253480248,4.0,4.0,534.5054432680145,536.8174607260671,536.8174959971575,552.2904608480931,4.0,3.0,2.0,3.0,552.290503514736,557.7436462969481,1.0,1.0,557.7436662080481,565.1776129834025,,,,,,,,
