Target,trials.thisRepN,trials.thisTrialN,trials.thisN,trials.thisIndex,trials_2.thisRepN,trials_2.thisTrialN,trials_2.thisN,trials_2.thisIndex,thisRow.t,notes,Data_transparency.started,key_resp_data_transp.started,Data_transparency.stopped,key_resp_data_transp.keys,key_resp_data_transp.rt,key_resp_data_transp.duration,instructions.started,instructions.stopped,trial.started,target_show.started,target_show.stopped,target_find.started,mouse.started,trial.stopped,target_position_x_y,mouse.x,mouse.y,mouse.leftButton,mouse.midButton,mouse.rightButton,mouse.time,mouse.corr,mouse.clicked_name,feedback.started,feedback.stopped,target_find.stopped,instructions_survey.started,instructions_survey.stopped,instructions_ratings.started,instructions_ratings.stopped,survey_ratings.started,survey_ratings.stopped,furcht.response,liebenswert.response,rated_image,survey_gen.started,survey_gen.stopped,age.text,gender.response,survey_games.started,survey_games.stopped,pc_frequency.response,reaction_games_frequency.response,instructions_neuro.started,instructions_neuro.stopped,survey_neuro.started,survey_neuro.stopped,neuro_1_rev.response,neuro_2.response,neuro_3.response,neuro_4_rev.response,survey_fear.started,survey_fear.stopped,specific_fear_spider.response,specific_fear_snake.response,thanks.started,thanks.stopped,participant,session,date,expName,psychopyVersion,frameRate,expStart,
,,,,,,,,,,,0.004737000010209158,0.016701600019587204,29.615216800011694,z,29.582874299987452,None,,,,,,,,,,,,,,,,,,,,,,,,,,,,,,,,,,,,,,,,,,,,,,,,,,,,155954,001,2023-11-13_14h05.50.644,Selektive Wahrnehmung,2023.2.2,59.86772823418321,2023-11-13 14h05.59.795728 +0100,
,,,,,,,,,,,,,,,,,29.615235200006282,56.69709010000224,,,,,,,,,,,,,,,,,,,,,,,,,,,,,,,,,,,,,,,,,,,,,,,,,,155954,001,2023-11-13_14h05.50.644,Selektive Wahrnehmung,2023.2.2,59.86772823418321,2023-11-13 14h05.59.795728 +0100,
person1,0,0,0,4,,,,,56.74949570000172,,,,,,,,,,56.70280120000825,56.74949570000172,58.7574402000173,59.706800300016766,3.0097810000006575,60.66340320001473,"[0, 300]",[0.03981481481481482],[0.24074074074074073],[1],[0],[0],[0.9555540999863297],[1],['target_find'],60.66723620000994,61.67201680000289,,,,,,,,,,,,,,,,,,,,,,,,,,,,,,,,,155954,001,2023-11-13_14h05.50.644,Selektive Wahrnehmung,2023.2.2,59.86772823418321,2023-11-13 14h05.59.795728 +0100,
zug1,0,1,1,15,,,,,61.69108980000601,,,,,,,,,,61.6722379999992,61.69108980000601,63.706282200000715,64.6866405000037,3.0147738000086974,65.67029850001563,"[-300, 300]",[-0.175],[0.2518518518518518],[1],[0],[0],[0.9831742999958806],[1],['target_find'],65.67071240002406,66.68489319999935,,,,,,,,,,,,,,,,,,,,,,,,,,,,,,,,,155954,001,2023-11-13_14h05.50.644,Selektive Wahrnehmung,2023.2.2,59.86772823418321,2023-11-13 14h05.59.795728 +0100,
person2,0,2,2,5,,,,,66.7032223000133,,,,,,,,,,66.68511020002188,66.7032223000133,68.70686860001297,69.70321830001194,3.0186425000138115,70.63465040002484,"[-300, 300]",[-0.19537037037037036],[0.2675925925925926],[1],[0],[0],[0.9306740000029095],[1],['target_find'],70.63506369999959,71.64997930001118,,,,,,,,,,,,,,,,,,,,,,,,,,,,,,,,,155954,001,2023-11-13_14h05.50.644,Selektive Wahrnehmung,2023.2.2,59.86772823418321,2023-11-13 14h05.59.795728 +0100,
spinne1,0,3,3,0,,,,,71.67028800002299,,,,,,,,,,71.65019949999987,71.67028800002299,73.68106250002165,74.66447400001925,3.0146775000030175,76.33253740001237,"[300, 0]",[0.36203703703703705],[-0.05462962962962963],[1],[0],[0],[1.6673967999813613],[1],['target_find'],76.3331218000094,77.34674030001042,,,,,,,,,,,,,,,,,,,,,,,,,,,,,,,,,155954,001,2023-11-13_14h05.50.644,Selektive Wahrnehmung,2023.2.2,59.86772823418321,2023-11-13 14h05.59.795728 +0100,
schiff1,0,4,4,14,,,,,77.3654587000201,,,,,,,,,,77.34697640000377,77.3654587000201,79.38068620002014,80.35831930002314,3.0116538999718614,81.30040030000964,"[300, 300]",[0.3138888888888889],[0.20092592592592592],[1],[0],[0],[0.9410234999959357],[1],['target_find'],81.3022547000146,82.30932470000698,,,,,,,,,,,,,,,,,,,,,,,,,,,,,,,,,155954,001,2023-11-13_14h05.50.644,Selektive Wahrnehmung,2023.2.2,59.86772823418321,2023-11-13 14h05.59.795728 +0100,
gesicht2,0,5,5,9,,,,,82.39322950001224,,,,,,,,,,82.31010840000818,82.39322950001224,84.40603800001554,85.31127200002084,3.0019937999895774,86.1533057000197,"[300, -300]",[0.25092592592592594],[-0.23425925925925925],[1],[0],[0],[0.8416039000148885],[1],['target_find'],86.15372210001806,87.16840490000322,,,,,,,,,,,,,,,,,,,,,,,,,,,,,,,,,155954,001,2023-11-13_14h05.50.644,Selektive Wahrnehmung,2023.2.2,59.86772823418321,2023-11-13 14h05.59.795728 +0100,
schlange2,0,6,6,3,,,,,87.27204510002048,,,,,,,,,,87.16862030001357,87.27204510002048,89.28417250001803,90.18366680000327,3.0153330999892205,90.86751290000393,"[300, 0]",[0.30092592592592593],[-0.05],[1],[0],[0],[0.6834127999900375],[1],['target_find'],90.86792820002302,91.88304919999791,,,,,,,,,,,,,,,,,,,,,,,,,,,,,,,,,155954,001,2023-11-13_14h05.50.644,Selektive Wahrnehmung,2023.2.2,59.86772823418321,2023-11-13 14h05.59.795728 +0100,
flugzeug1,0,7,7,13,,,,,91.93389980000211,,,,,,,,,,91.8832606000069,91.93389980000211,93.95367420002003,94.8966277000145,3.013648699998157,96.19865410000784,"[-300, 0]",[-0.175],[0.018518518518518517],[1],[0],[0],[1.3015719999966677],[1],['target_find'],96.19907410000451,97.20200790002127,,,,,,,,,,,,,,,,,,,,,,,,,,,,,,,,,155954,001,2023-11-13_14h05.50.644,Selektive Wahrnehmung,2023.2.2,59.86772823418321,2023-11-13 14h05.59.795728 +0100,
gesicht1,0,8,8,8,,,,,97.22263950001798,,,,,,,,,,97.20280330002424,97.22263950001798,99.23106680001365,100.21347840002272,3.011516800004756,100.73007200000575,"[300, 0]",[0.2722222222222222],[-0.013888888888888888],[1],[0],[0],[0.5161058000230696],[1],['target_find'],100.7306188000075,101.74512970002252,,,,,,,,,,,,,,,,,,,,,,,,,,,,,,,,,155954,001,2023-11-13_14h05.50.644,Selektive Wahrnehmung,2023.2.2,59.86772823418321,2023-11-13 14h05.59.795728 +0100,
gesicht3,0,9,9,10,,,,,101.81769760002499,,,,,,,,,,101.74548130002222,101.81769760002499,103.82402830000501,104.75649310002336,3.0114290000055917,105.47418100002687,"[300, 300]",[0.287962962962963],[0.2212962962962963],[1],[0],[0],[0.7172449000063352],[1],['target_find'],105.47460180000053,106.48835400000098,,,,,,,,,,,,,,,,,,,,,,,,,,,,,,,,,155954,001,2023-11-13_14h05.50.644,Selektive Wahrnehmung,2023.2.2,59.86772823418321,2023-11-13 14h05.59.795728 +0100,
gesicht4,0,10,10,11,,,,,106.53762340001413,,,,,,,,,,106.48856820000219,106.53762340001413,108.53728180000326,109.50262900002417,3.0143554999958724,110.55257660002098,"[-300, 0]",[-0.175],[0.008333333333333333],[1],[0],[0],[1.0494965999969281],[1],['target_find'],110.55300179999904,111.56831610001973,,,,,,,,,,,,,,,,,,,,,,,,,,,,,,,,,155954,001,2023-11-13_14h05.50.644,Selektive Wahrnehmung,2023.2.2,59.86772823418321,2023-11-13 14h05.59.795728 +0100,
schlange1,0,11,11,2,,,,,111.58777390001342,,,,,,,,,,111.56853140000021,111.58777390001342,113.59938280002098,114.58753879999858,3.000037300022086,116.15772930000094,"[-300, -300]",[-0.27685185185185185],[-0.2740740740740741],[1],[0],[0],[1.5878417000058107],[1],['target_find'],116.15974350000033,117.16408880002564,,,,,,,,,,,,,,,,,,,,,,,,,,,,,,,,,155954,001,2023-11-13_14h05.50.644,Selektive Wahrnehmung,2023.2.2,59.86772823418321,2023-11-13 14h05.59.795728 +0100,
gruppe1,0,12,12,6,,,,,117.18199240000104,,,,,,,,,,117.16435050001019,117.18199240000104,119.18085990002146,120.16404280002462,3.000026199995773,121.18206720001763,"[0, 300]",[-0.007407407407407408],[0.2962962962962963],[1],[0],[0],[1.0176189000194427],[1],['target_find'],121.18247800000245,122.19968920000247,,,,,,,,,,,,,,,,,,,,,,,,,,,,,,,,,155954,001,2023-11-13_14h05.50.644,Selektive Wahrnehmung,2023.2.2,59.86772823418321,2023-11-13 14h05.59.795728 +0100,
auto1,0,13,13,12,,,,,122.22260170002119,,,,,,,,,,122.20045500001288,122.22260170002119,124.22913900000276,125.20708839999861,3.0074481000192463,126.8231823000242,"[-300, -300]",[-0.34074074074074073],[-0.21851851851851853],[1],[0],[0],[1.6156191999907605],[1],['target_find'],126.82368520001182,127.838170300005,,,,,,,,,,,,,,,,,,,,,,,,,,,,,,,,,155954,001,2023-11-13_14h05.50.644,Selektive Wahrnehmung,2023.2.2,59.86772823418321,2023-11-13 14h05.59.795728 +0100,
spinne2,0,14,14,1,,,,,127.96519240000634,,,,,,,,,,127.83839860002627,127.96519240000634,129.96828570001526,130.85216629999923,3.0140839999949094,131.74112550000427,"[300, 300]",[0.2388888888888889],[0.2611111111111111],[1],[0],[0],[0.8882182999805082],[1],['target_find'],131.7422030000016,132.75300990001415,,,,,,,,,,,,,,,,,,,,,,,,,,,,,,,,,155954,001,2023-11-13_14h05.50.644,Selektive Wahrnehmung,2023.2.2,59.86772823418321,2023-11-13 14h05.59.795728 +0100,
gruppe2,0,15,15,7,,,,,132.8378081000119,,,,,,,,,,132.75327000001562,132.8378081000119,134.85034930001711,135.76670950002153,3.0137680000043474,136.71649930000422,"[0, -300]",[-0.058333333333333334],[-0.23148148148148148],[1],[0],[0],[0.9493297999724746],[1],['target_find'],136.7169273000036,137.7188372000237,,,,,,,,,,,,,,,,,,,,,,,,,,,,,,,,,155954,001,2023-11-13_14h05.50.644,Selektive Wahrnehmung,2023.2.2,59.86772823418321,2023-11-13 14h05.59.795728 +0100,
zug1,1,0,16,15,,,,,137.7505671000108,,,,,,,,,,137.71905179999885,137.7505671000108,139.76349870002014,140.72157690001768,3.003015199996298,141.58155540001462,"[300, 300]",[0.29259259259259257],[0.2462962962962963],[1],[0],[0],[0.8592601999989711],[1],['target_find'],141.58197650001966,142.5976370999997,,,,,,,,,,,,,,,,,,,,,,,,,,,,,,,,,155954,001,2023-11-13_14h05.50.644,Selektive Wahrnehmung,2023.2.2,59.86772823418321,2023-11-13 14h05.59.795728 +0100,
gruppe2,1,1,17,7,,,,,142.61607720001484,,,,,,,,,,142.5978516000032,142.61607720001484,144.63167760000215,145.59602270001778,3.0151894000009634,146.44661140002427,"[300, 300]",[0.41203703703703703],[0.29259259259259257],[1],[0],[0],[0.8333944999903906],[1],['target_find'],146.44703680000384,147.45783420000225,,,,,,,,,,,,,,,,,,,,,,,,,,,,,,,,,155954,001,2023-11-13_14h05.50.644,Selektive Wahrnehmung,2023.2.2,59.86772823418321,2023-11-13 14h05.59.795728 +0100,
schlange2,1,2,18,3,,,,,147.47745170001872,,,,,,,,,,147.45804630001658,147.47745170001872,149.4891503000108,150.47051500002271,3.0127502999966964,151.03934160000063,"[300, 0]",[0.20833333333333334],[0.046296296296296294],[1],[0],[0],[0.5683654000167735],[1],['target_find'],151.0397809999995,152.0546337000269,,,,,,,,,,,,,,,,,,,,,,,,,,,,,,,,,155954,001,2023-11-13_14h05.50.644,Selektive Wahrnehmung,2023.2.2,59.86772823418321,2023-11-13 14h05.59.795728 +0100,
gesicht2,1,3,19,9,,,,,152.076423600025,,,,,,,,,,152.05485630000476,152.076423600025,154.08586210000794,155.05775140001788,3.0033926000178326,155.51895980001427,"[300, 0]",[0.20833333333333334],[0.04537037037037037],[1],[0],[0],[0.46048709997558035],[1],['target_find'],155.51938860001974,156.53331840000465,,,,,,,,,,,,,,,,,,,,,,,,,,,,,,,,,155954,001,2023-11-13_14h05.50.644,Selektive Wahrnehmung,2023.2.2,59.86772823418321,2023-11-13 14h05.59.795728 +0100,
auto1,1,4,20,12,,,,,156.55290870001772,,,,,,,,,,156.5335413000139,156.55290870001772,158.56425890000537,159.55562210001517,3.004176499991445,160.6995603000105,"[0, -300]",[-0.05185185185185185],[-0.23055555555555557],[1],[0],[0],[1.1612406999920495],[1],['target_find'],160.70008970002527,161.70344410001417,,,,,,,,,,,,,,,,,,,,,,,,,,,,,,,,,155954,001,2023-11-13_14h05.50.644,Selektive Wahrnehmung,2023.2.2,59.86772823418321,2023-11-13 14h05.59.795728 +0100,
gesicht1,1,5,21,8,,,,,161.73881640000036,,,,,,,,,,161.70424520000233,161.73881640000036,163.74733310000738,164.71376140002394,3.010364000016125,165.84807860001456,"[-300, 300]",[-0.38981481481481484],[0.3574074074074074],[1],[0],[0],[1.1338805000123102],[1],['target_find'],165.84851850001724,166.86384120001458,,,,,,,,,,,,,,,,,,,,,,,,,,,,,,,,,155954,001,2023-11-13_14h05.50.644,Selektive Wahrnehmung,2023.2.2,59.86772823418321,2023-11-13 14h05.59.795728 +0100,
gruppe1,1,6,22,6,,,,,166.8843426000094,,,,,,,,,,166.8640644000261,166.8843426000094,168.89391480002087,169.8735016999999,3.00973989997874,170.74574300000677,"[0, 300]",[-0.06296296296296296],[0.30277777777777776],[1],[0],[0],[0.8717995999904815],[1],['target_find'],170.74616140002036,171.75535750002018,,,,,,,,,,,,,,,,,,,,,,,,,,,,,,,,,155954,001,2023-11-13_14h05.50.644,Selektive Wahrnehmung,2023.2.2,59.86772823418321,2023-11-13 14h05.59.795728 +0100,
person1,1,7,23,4,,,,,171.7742478,,,,,,,,,,171.75557110001682,171.7742478,173.78625210002065,174.75609830001486,3.000994299974991,175.85875010001473,"[300, -300]",[0.18796296296296297],[-0.21388888888888888],[1],[0],[0],[1.101960700005293],[1],['target_find'],175.85916140000336,176.87006990000373,,,,,,,,,,,,,,,,,,,,,,,,,,,,,,,,,155954,001,2023-11-13_14h05.50.644,Selektive Wahrnehmung,2023.2.2,59.86772823418321,2023-11-13 14h05.59.795728 +0100,
person2,1,8,24,5,,,,,176.8903893000097,,,,,,,,,,176.87029190000612,176.8903893000097,178.90027220000047,179.88158919999842,3.0115947000158485,181.00400880002417,"[-300, -300]",[-0.3175925925925926],[-0.2518518518518518],[1],[0],[0],[1.1219819999823812],[1],['target_find'],181.00443660002202,182.01532550001866,,,,,,,,,,,,,,,,,,,,,,,,,,,,,,,,,155954,001,2023-11-13_14h05.50.644,Selektive Wahrnehmung,2023.2.2,59.86772823418321,2023-11-13 14h05.59.795728 +0100,
spinne2,1,9,25,1,,,,,182.141033300024,,,,,,,,,,182.0155647000065,182.141033300024,184.14692200001446,185.02895240002545,3.0137055000232067,186.54648990000715,"[0, 300]",[-0.014814814814814815],[0.19722222222222222],[1],[0],[0],[1.5171222999924794],[1],['target_find'],186.5469068000093,187.54743030000827,,,,,,,,,,,,,,,,,,,,,,,,,,,,,,,,,155954,001,2023-11-13_14h05.50.644,Selektive Wahrnehmung,2023.2.2,59.86772823418321,2023-11-13 14h05.59.795728 +0100,
schiff1,1,10,26,14,,,,,187.57504480000352,,,,,,,,,,187.54766300000483,187.57504480000352,189.5798978000239,190.56272230000468,3.0153470000077505,191.4028009000176,"[0, -300]",[-0.044444444444444446],[-0.20092592592592592],[1],[0],[0],[0.8390325999935158],[1],['target_find'],191.40464620001148,192.41102379999938,,,,,,,,,,,,,,,,,,,,,,,,,,,,,,,,,155954,001,2023-11-13_14h05.50.644,Selektive Wahrnehmung,2023.2.2,59.86772823418321,2023-11-13 14h05.59.795728 +0100,
flugzeug1,1,11,27,13,,,,,192.4292311000172,,,,,,,,,,192.4112415999989,192.4292311000172,194.43824840002344,195.428525299998,3.017643900006078,196.22370660002343,"[300, -300]",[0.17407407407407408],[-0.24074074074074073],[1],[0],[0],[0.7944431999931112],[1],['target_find'],196.22454510000534,197.23734420002438,,,,,,,,,,,,,,,,,,,,,,,,,,,,,,,,,155954,001,2023-11-13_14h05.50.644,Selektive Wahrnehmung,2023.2.2,59.86772823418321,2023-11-13 14h05.59.795728 +0100,
schlange1,1,12,28,2,,,,,197.25465909999912,,,,,,,,,,197.23757530000876,197.25465909999912,199.26889050001046,200.25007490001735,3.0128036999958567,201.46899570000824,"[0, 300]",[-0.03148148148148148],[0.27037037037037037],[1],[0],[0],[1.2184985000058077],[1],['target_find'],201.46940030000405,202.48336810001638,,,,,,,,,,,,,,,,,,,,,,,,,,,,,,,,,155954,001,2023-11-13_14h05.50.644,Selektive Wahrnehmung,2023.2.2,59.86772823418321,2023-11-13 14h05.59.795728 +0100,
spinne1,1,13,29,0,,,,,202.50419410000904,,,,,,,,,,202.48360160001903,202.50419410000904,204.51490380000905,205.4964327000198,3.013181100017391,206.8814384000143,"[0, -300]",[0.021296296296296296],[-0.2722222222222222],[1],[0],[0],[1.3844807000132278],[1],['target_find'],206.88185500001418,207.89731890000985,,,,,,,,,,,,,,,,,,,,,,,,,,,,,,,,,155954,001,2023-11-13_14h05.50.644,Selektive Wahrnehmung,2023.2.2,59.86772823418321,2023-11-13 14h05.59.795728 +0100,
gesicht4,1,14,30,11,,,,,207.92555080002057,,,,,,,,,,207.89769770001294,207.92555080002057,209.93337040001643,210.9003945000004,3.0032339000026695,211.8474110000243,"[-300, 300]",[-0.28703703703703703],[0.32222222222222224],[1],[0],[0],[0.9464473999978509],[1],['target_find'],211.84782720002113,212.8625713000074,,,,,,,,,,,,,,,,,,,,,,,,,,,,,,,,,155954,001,2023-11-13_14h05.50.644,Selektive Wahrnehmung,2023.2.2,59.86772823418321,2023-11-13 14h05.59.795728 +0100,
gesicht3,1,15,31,10,,,,,212.88063450000482,,,,,,,,,,212.86278780002613,212.88063450000482,214.88166070001898,215.87338730000192,3.0109099999826867,216.64006170001812,"[300, -300]",[0.2388888888888889],[-0.26481481481481484],[1],[0],[0],[0.7662638999754563],[1],['target_find'],216.64065520002623,217.6537608000217,,,,,,,,,,,,,,,,,,,,,,,,,,,,,,,,,155954,001,2023-11-13_14h05.50.644,Selektive Wahrnehmung,2023.2.2,59.86772823418321,2023-11-13 14h05.59.795728 +0100,
person1,2,0,32,4,,,,,217.67351390002295,,,,,,,,,,217.65398220001953,217.67351390002295,219.68655090001994,220.66952980001224,3.0158493000199087,221.27075570001034,"[300, 0]",[0.20277777777777778],[-0.06481481481481481],[1],[0],[0],[0.600777100014966],[1],['target_find'],221.27116309999838,222.2834686000133,,,,,,,,,,,,,,,,,,,,,,,,,,,,,,,,,155954,001,2023-11-13_14h05.50.644,Selektive Wahrnehmung,2023.2.2,59.86772823418321,2023-11-13 14h05.59.795728 +0100,
gesicht4,2,1,33,11,,,,,222.30224000001908,,,,,,,,,,222.28368700001738,222.30224000001908,224.30600969999796,225.28122420000727,3.0163637999794446,226.05010740002035,"[-300, 0]",[-0.18518518518518517],[-0.027777777777777776],[1],[0],[0],[0.7499643999908585],[1],['target_find'],226.0505163000198,227.05438420001883,,,,,,,,,,,,,,,,,,,,,,,,,,,,,,,,,155954,001,2023-11-13_14h05.50.644,Selektive Wahrnehmung,2023.2.2,59.86772823418321,2023-11-13 14h05.59.795728 +0100,
schiff1,2,2,34,14,,,,,227.09367760000168,,,,,,,,,,227.0551783000119,227.09367760000168,229.10213630000362,230.06464670001878,3.0104925999767147,231.48063890001504,"[-300, 0]",[-0.22962962962962963],[-0.037037037037037035],[1],[0],[0],[1.4153358999756165],[1],['target_find'],231.4810729000019,232.49744720000308,,,,,,,,,,,,,,,,,,,,,,,,,,,,,,,,,155954,001,2023-11-13_14h05.50.644,Selektive Wahrnehmung,2023.2.2,59.86772823418321,2023-11-13 14h05.59.795728 +0100,
gesicht1,2,3,35,8,,,,,232.51787120001973,,,,,,,,,,232.49768100000801,232.51787120001973,234.52833940001437,235.49552110000513,3.0150711000023875,236.3959046000091,"[0, 300]",[-0.03425925925925926],[0.262037037037037],[1],[0],[0],[0.883038600004511],[1],['target_find'],236.39631900002132,237.41027520000353,,,,,,,,,,,,,,,,,,,,,,,,,,,,,,,,,155954,001,2023-11-13_14h05.50.644,Selektive Wahrnehmung,2023.2.2,59.86772823418321,2023-11-13 14h05.59.795728 +0100,
gruppe2,2,4,36,7,,,,,237.42806160001783,,,,,,,,,,237.4104952000198,237.42806160001783,239.4371417000075,240.4213348000194,3.0111825999920256,241.31374720000895,"[-300, 300]",[-0.2564814814814815],[0.23981481481481481],[1],[0],[0],[0.891270699998131],[1],['target_find'],241.3156329000194,242.31864910002332,,,,,,,,,,,,,,,,,,,,,,,,,,,,,,,,,155954,001,2023-11-13_14h05.50.644,Selektive Wahrnehmung,2023.2.2,59.86772823418321,2023-11-13 14h05.59.795728 +0100,
spinne1,2,5,37,0,,,,,242.3387747000088,,,,,,,,,,242.3188812000153,242.3387747000088,244.35049670000444,245.33377230001497,3.0152020000095945,247.5990645000129,"[300, 300]",[0.22037037037037038],[0.24074074074074073],[1],[0],[0],[2.2647417999978643],[1],['target_find'],247.59949870000128,248.61843520001275,,,,,,,,,,,,,,,,,,,,,,,,,,,,,,,,,155954,001,2023-11-13_14h05.50.644,Selektive Wahrnehmung,2023.2.2,59.86772823418321,2023-11-13 14h05.59.795728 +0100,
zug1,2,6,38,15,,,,,248.6441005000088,,,,,,,,,,248.61886940000113,248.6441005000088,250.64670500002103,251.63176410002052,3.0134000000252854,252.59760950002237,"[300, -300]",[0.2953703703703704],[-0.2675925925925926],[1],[0],[0],[0.9653839000093285],[1],['target_find'],252.59803110000212,253.61385520000476,,,,,,,,,,,,,,,,,,,,,,,,,,,,,,,,,155954,001,2023-11-13_14h05.50.644,Selektive Wahrnehmung,2023.2.2,59.86772823418321,2023-11-13 14h05.59.795728 +0100,
schlange2,2,7,39,3,,,,,253.63581170001999,,,,,,,,,,253.61416700002155,253.63581170001999,255.64667230000487,256.62593650000053,3.012152999988757,258.1671889999998,"[-300, 300]",[-0.18425925925925926],[0.24537037037037038],[1],[0],[0],[1.5401898999989498],[1],['target_find'],258.1690068000171,259.17326730000786,,,,,,,,,,,,,,,,,,,,,,,,,,,,,,,,,155954,001,2023-11-13_14h05.50.644,Selektive Wahrnehmung,2023.2.2,59.86772823418321,2023-11-13 14h05.59.795728 +0100,
person2,2,8,40,5,,,,,259.1949079000042,,,,,,,,,,259.17348389999825,259.1949079000042,261.20606870000483,262.18761910000467,3.014424799999688,263.03756590001285,"[-300, -300]",[-0.20925925925925926],[-0.20925925925925926],[1],[0],[0],[0.8495079999847803],[1],['target_find'],263.03797880001366,264.05303570002434,,,,,,,,,,,,,,,,,,,,,,,,,,,,,,,,,155954,001,2023-11-13_14h05.50.644,Selektive Wahrnehmung,2023.2.2,59.86772823418321,2023-11-13 14h05.59.795728 +0100,
schlange1,2,9,41,2,,,,,264.0724838000024,,,,,,,,,,264.0533162000065,264.0724838000024,266.08718550001504,267.067635400017,3.014670600008685,267.78409380000085,"[-300, -300]",[-0.2175925925925926],[-0.2574074074074074],[1],[0],[0],[0.7160213000024669],[1],['target_find'],267.7845178999996,268.8008985000197,,,,,,,,,,,,,,,,,,,,,,,,,,,,,,,,,155954,001,2023-11-13_14h05.50.644,Selektive Wahrnehmung,2023.2.2,59.86772823418321,2023-11-13 14h05.59.795728 +0100,
auto1,2,10,42,12,,,,,268.82055580001906,,,,,,,,,,268.8011986000056,268.82055580001906,270.8354001000116,271.81648530001985,3.0158612999948673,272.56533780001337,"[-300, 300]",[-0.21388888888888888],[0.25092592592592594],[1],[0],[0],[0.7481057000113651],[1],['target_find'],272.56575570002315,273.579733999999,,,,,,,,,,,,,,,,,,,,,,,,,,,,,,,,,155954,001,2023-11-13_14h05.50.644,Selektive Wahrnehmung,2023.2.2,59.86772823418321,2023-11-13 14h05.59.795728 +0100,
gesicht2,2,11,43,9,,,,,273.5985621,,,,,,,,,,273.57994940000935,273.5985621,275.5964537000109,276.58643440000014,3.0068893000134267,277.3144824000192,"[300, 300]",[0.22592592592592592],[0.18611111111111112],[1],[0],[0],[0.7274694000079762],[1],['target_find'],277.3149051000073,278.3294650000171,,,,,,,,,,,,,,,,,,,,,,,,,,,,,,,,,155954,001,2023-11-13_14h05.50.644,Selektive Wahrnehmung,2023.2.2,59.86772823418321,2023-11-13 14h05.59.795728 +0100,
flugzeug1,2,12,44,13,,,,,278.3483639000042,,,,,,,,,,278.3296947000199,278.3483639000042,280.3617079000105,281.3269447000057,3.0159365000145044,283.9217523000261,"[300, 0]",[0.24444444444444444],[-0.017592592592592594],[1],[0],[0],[2.5759395000059158],[1],['target_find'],283.92216980000376,284.9282761000213,,,,,,,,,,,,,,,,,,,,,,,,,,,,,,,,,155954,001,2023-11-13_14h05.50.644,Selektive Wahrnehmung,2023.2.2,59.86772823418321,2023-11-13 14h05.59.795728 +0100,
gesicht3,2,13,45,10,,,,,284.95254170001135,,,,,,,,,,284.9291170000215,284.95254170001135,286.9585052000184,287.9339092000155,3.0056781000166666,288.7855508000066,"[-300, -300]",[-0.2037037037037037],[-0.20925925925925926],[1],[0],[0],[0.8511940000171307],[1],['target_find'],288.7859767000191,289.8114190000051,,,,,,,,,,,,,,,,,,,,,,,,,,,,,,,,,155954,001,2023-11-13_14h05.50.644,Selektive Wahrnehmung,2023.2.2,59.86772823418321,2023-11-13 14h05.59.795728 +0100,
spinne2,2,14,46,1,,,,,289.93920390002313,,,,,,,,,,289.812244700006,289.93920390002313,291.94811360002495,292.81514660001267,3.003779199993005,293.89722700000857,"[300, -300]",[0.20185185185185187],[-0.21296296296296297],[1],[0],[0],[1.0816374999994878],[1],['target_find'],293.8976976000122,294.91384790002485,,,,,,,,,,,,,,,,,,,,,,,,,,,,,,,,,155954,001,2023-11-13_14h05.50.644,Selektive Wahrnehmung,2023.2.2,59.86772823418321,2023-11-13 14h05.59.795728 +0100,
gruppe1,2,15,47,6,,,,,294.9404317000008,,,,,,,,,,294.9140716000111,294.9404317000008,296.9477743000025,297.9331558000122,3.0005336000176612,298.73095610001474,"[300, 300]",[0.1824074074074074],[0.18703703703703703],[1],[0],[0],[0.8156302999996115],[1],['target_find'],298.73151030001463,299.7464387000073,,,,,,,,,,,,,,,,,,,,,,,,,,,,,,,,,155954,001,2023-11-13_14h05.50.644,Selektive Wahrnehmung,2023.2.2,59.86772823418321,2023-11-13 14h05.59.795728 +0100,
flugzeug1,3,0,48,13,,,,,299.76710940001067,,,,,,,,,,299.746713200002,299.76710940001067,301.7781173000112,302.76067960000364,3.0143307000107598,303.723555900011,"[300, 300]",[0.2222222222222222],[0.2101851851851852],[1],[0],[0],[0.9624176000070293],[1],['target_find'],303.72398180002347,304.74013540000306,,,,,,,,,,,,,,,,,,,,,,,,,,,,,,,,,155954,001,2023-11-13_14h05.50.644,Selektive Wahrnehmung,2023.2.2,59.86772823418321,2023-11-13 14h05.59.795728 +0100,
auto1,3,1,49,12,,,,,304.759531800024,,,,,,,,,,304.74035020000883,304.759531800024,306.77134760000627,307.7528932999994,3.0128410999896005,309.00476200002595,"[300, 300]",[0.2388888888888889],[0.19722222222222222],[1],[0],[0],[1.251420099986717],[1],['target_find'],309.00518240002566,310.01937049999833,,,,,,,,,,,,,,,,,,,,,,,,,,,,,,,,,155954,001,2023-11-13_14h05.50.644,Selektive Wahrnehmung,2023.2.2,59.86772823418321,2023-11-13 14h05.59.795728 +0100,
zug1,3,2,50,15,,,,,310.0393295000249,,,,,,,,,,310.0197018000181,310.0393295000249,312.0493490000081,313.0324666000088,3.013170899997931,313.91556380002294,"[-300, -300]",[-0.2111111111111111],[-0.24074074074074073],[1],[0],[0],[0.8826709999993909],[1],['target_find'],313.91597590001766,314.93568720002077,,,,,,,,,,,,,,,,,,,,,,,,,,,,,,,,,155954,001,2023-11-13_14h05.50.644,Selektive Wahrnehmung,2023.2.2,59.86772823418321,2023-11-13 14h05.59.795728 +0100,
gesicht2,3,3,51,9,,,,,314.9549614000134,,,,,,,,,,314.93589500000235,314.9549614000134,316.9637894000043,317.9453471000015,3.009731700003613,318.69682380001177,"[-300, 300]",[-0.2324074074074074],[0.23796296296296296],[1],[0],[0],[0.7510423999920022],[1],['target_find'],318.6972325000097,319.7167886000243,,,,,,,,,,,,,,,,,,,,,,,,,,,,,,,,,155954,001,2023-11-13_14h05.50.644,Selektive Wahrnehmung,2023.2.2,59.86772823418321,2023-11-13 14h05.59.795728 +0100,
schlange2,3,4,52,3,,,,,319.73496920001344,,,,,,,,,,319.7169959000021,319.73496920001344,321.7460334000061,322.7288784000266,3.012165299995104,324.35043460002635,"[300, 0]",[0.20833333333333334],[-0.007407407407407408],[1],[0],[0],[1.6204424000170548],[1],['target_find'],324.3524983000243,325.3620349999983,,,,,,,,,,,,,,,,,,,,,,,,,,,,,,,,,155954,001,2023-11-13_14h05.50.644,Selektive Wahrnehmung,2023.2.2,59.86772823418321,2023-11-13 14h05.59.795728 +0100,
gruppe2,3,5,53,7,,,,,325.38679570000386,,,,,,,,,,325.3628013000125,325.38679570000386,327.3876261000114,328.3719550000096,3.009970799990697,329.2934262000199,"[0, -300]",[0.008333333333333333],[-0.24074074074074073],[1],[0],[0],[0.9203862000140361],[1],['target_find'],329.29524260002654,330.3039049000072,,,,,,,,,,,,,,,,,,,,,,,,,,,,,,,,,155954,001,2023-11-13_14h05.50.644,Selektive Wahrnehmung,2023.2.2,59.86772823418321,2023-11-13 14h05.59.795728 +0100,
gesicht4,3,6,54,11,,,,,330.32246910000686,,,,,,,,,,330.30413630002295,330.32246910000686,332.3354271000135,333.3176287000242,3.0007750999939162,334.06870780000463,"[-300, 0]",[-0.3194444444444444],[-0.05],[1],[0],[0],[0.7632623999961652],[1],['target_find'],334.0691245000053,335.08411460000207,,,,,,,,,,,,,,,,,,,,,,,,,,,,,,,,,155954,001,2023-11-13_14h05.50.644,Selektive Wahrnehmung,2023.2.2,59.86772823418321,2023-11-13 14h05.59.795728 +0100,
schiff1,3,7,55,14,,,,,335.1037968000164,,,,,,,,,,335.0843497000169,335.1037968000164,337.11577190001844,338.097651100019,3.0025942999927793,338.79739590000827,"[0, -300]",[-0.09722222222222222],[-0.18425925925925926],[1],[0],[0],[0.7101825000136159],[1],['target_find'],338.7978095000144,339.81366520002484,,,,,,,,,,,,,,,,,,,,,,,,,,,,,,,,,155954,001,2023-11-13_14h05.50.644,Selektive Wahrnehmung,2023.2.2,59.86772823418321,2023-11-13 14h05.59.795728 +0100,
person1,3,8,56,4,,,,,339.8462465000048,,,,,,,,,,339.8138806000061,339.8462465000048,341.84489090001443,342.8290541000024,3.0154611000034492,343.5800315000233,"[300, 0]",[0.20277777777777778],[-0.041666666666666664],[1],[0],[0],[0.7505724000220653],[1],['target_find'],343.580620200024,344.5967303000216,,,,,,,,,,,,,,,,,,,,,,,,,,,,,,,,,155954,001,2023-11-13_14h05.50.644,Selektive Wahrnehmung,2023.2.2,59.86772823418321,2023-11-13 14h05.59.795728 +0100,
person2,3,9,57,5,,,,,344.6149130000267,,,,,,,,,,344.5969424000068,344.6149130000267,346.62863600000856,347.6115437000117,3.0148926000110805,348.2605848000094,"[300, 0]",[0.29444444444444445],[-0.04814814814814815],[1],[0],[0],[0.6485644000058528],[1],['target_find'],348.2610561000183,349.27684970002156,,,,,,,,,,,,,,,,,,,,,,,,,,,,,,,,,155954,001,2023-11-13_14h05.50.644,Selektive Wahrnehmung,2023.2.2,59.86772823418321,2023-11-13 14h05.59.795728 +0100,
gesicht1,3,10,58,8,,,,,349.29583300001104,,,,,,,,,,349.2771055000194,349.29583300001104,351.3045952000248,352.2885277000023,3.0005307999963406,353.4871377000236,"[0, 300]",[0.007407407407407408],[0.22685185185185186],[1],[0],[0],[1.209041999973124],[1],['target_find'],353.487549100013,354.5025348000054,,,,,,,,,,,,,,,,,,,,,,,,,,,,,,,,,155954,001,2023-11-13_14h05.50.644,Selektive Wahrnehmung,2023.2.2,59.86772823418321,2023-11-13 14h05.59.795728 +0100,
gruppe1,3,11,59,6,,,,,354.5212877000158,,,,,,,,,,354.5027743000246,354.5212877000158,356.520929899998,357.51539929999853,3.0129417999996804,358.18777570000384,"[0, -300]",[0.002777777777777778],[-0.21481481481481482],[1],[0],[0],[0.6719675000058487],[1],['target_find'],358.18819090002216,359.19765360001475,,,,,,,,,,,,,,,,,,,,,,,,,,,,,,,,,155954,001,2023-11-13_14h05.50.644,Selektive Wahrnehmung,2023.2.2,59.86772823418321,2023-11-13 14h05.59.795728 +0100,
spinne2,3,12,60,1,,,,,359.32389780000085,,,,,,,,,,359.1978662000038,359.32389780000085,361.33026919999975,362.1966732000001,2.9990938999981154,363.2632678000082,"[300, -300]",[0.2212962962962963],[-0.21203703703703702],[1],[0],[0],[1.0661409000167623],[1],['target_find'],363.2636910000001,364.28284310002346,,,,,,,,,,,,,,,,,,,,,,,,,,,,,,,,,155954,001,2023-11-13_14h05.50.644,Selektive Wahrnehmung,2023.2.2,59.86772823418321,2023-11-13 14h05.59.795728 +0100,
spinne1,3,13,61,0,,,,,364.32745530002285,,,,,,,,,,364.28352490000543,364.32745530002285,366.32911420002347,367.2953371000185,3.0125512999948114,370.14436010000645,"[0, 300]",[0.03518518518518519],[0.22685185185185186],[1],[0],[0],[2.8486274000024423],[1],['target_find'],370.14477610000176,371.16286010001204,,,,,,,,,,,,,,,,,,,,,,,,,,,,,,,,,155954,001,2023-11-13_14h05.50.644,Selektive Wahrnehmung,2023.2.2,59.86772823418321,2023-11-13 14h05.59.795728 +0100,
schlange1,3,14,62,2,,,,,371.180022000015,,,,,,,,,,371.16307950002374,371.180022000015,373.18693250001525,374.169495500013,3.006709899986163,375.16374879999785,"[-300, 300]",[-0.18796296296296297],[0.19444444444444445],[1],[0],[0],[0.9930977000040002],[1],['target_find'],375.16561160000856,376.1686748000211,,,,,,,,,,,,,,,,,,,,,,,,,,,,,,,,,155954,001,2023-11-13_14h05.50.644,Selektive Wahrnehmung,2023.2.2,59.86772823418321,2023-11-13 14h05.59.795728 +0100,
gesicht3,3,15,63,10,,,,,376.1892443000106,,,,,,,,,,376.16889540001284,376.1892443000106,378.19986930000596,379.1833224000002,3.0147175999882165,379.68337710000924,"[-300, 0]",[-0.28055555555555556],[-0.03796296296296296],[1],[0],[0],[0.4996032000053674],[1],['target_find'],379.68379050001386,380.6996958000236,,,,,,,,,,,,,,,,,,,,,,,,,,,,,,,,,155954,001,2023-11-13_14h05.50.644,Selektive Wahrnehmung,2023.2.2,59.86772823418321,2023-11-13 14h05.59.795728 +0100,
spinne2,4,0,64,1,,,,,380.83497490000445,,,,,,,,,,380.7000661000202,380.83497490000445,382.8471021000005,383.7047759999987,3.005279100005282,384.8128130000259,"[300, -300]",[0.18611111111111112],[-0.20092592592592592],[1],[0],[0],[1.107466999994358],[1],['target_find'],384.8132177000225,385.83390460000373,,,,,,,,,,,,,,,,,,,,,,,,,,,,,,,,,155954,001,2023-11-13_14h05.50.644,Selektive Wahrnehmung,2023.2.2,59.86772823418321,2023-11-13 14h05.59.795728 +0100,
schlange1,4,1,65,2,,,,,385.8653961000091,,,,,,,,,,385.8346884000057,385.8653961000091,387.88328510001884,388.8456258000224,3.0117872999981046,389.71361130001605,"[-300, -300]",[-0.3685185185185185],[-0.3212962962962963],[1],[0],[0],[0.8674635000061244],[1],['target_find'],389.71411040000385,390.7287275000126,,,,,,,,,,,,,,,,,,,,,,,,,,,,,,,,,155954,001,2023-11-13_14h05.50.644,Selektive Wahrnehmung,2023.2.2,59.86772823418321,2023-11-13 14h05.59.795728 +0100,
schlange2,4,2,66,3,,,,,390.74653890001355,,,,,,,,,,390.7289382000163,390.74653890001355,392.75916780001717,393.73926740000024,3.0106339000049047,394.44314090002445,"[-300, -300]",[-0.20925925925925926],[-0.2564814814814815],[1],[0],[0],[0.7034416999958921],[1],['target_find'],394.44355720002204,395.4479445000179,,,,,,,,,,,,,,,,,,,,,,,,,,,,,,,,,155954,001,2023-11-13_14h05.50.644,Selektive Wahrnehmung,2023.2.2,59.86772823418321,2023-11-13 14h05.59.795728 +0100,
gesicht4,4,3,67,11,,,,,395.49036260001594,,,,,,,,,,395.44880410001497,395.49036260001594,397.50194320001174,398.4522021000157,3.004309900017688,402.448286800005,"[300, -300]",[],[],[],[],[],[],[],[],402.44869520000066,403.4659997000126,402.44816770000034,,,,,,,,,,,,,,,,,,,,,,,,,,,,,,,,155954,001,2023-11-13_14h05.50.644,Selektive Wahrnehmung,2023.2.2,59.86772823418321,2023-11-13 14h05.59.795728 +0100,
flugzeug1,4,4,68,13,,,,,403.4846412000188,,,,,,,,,,403.46621750001214,403.4846412000188,405.49724210001295,406.47852330000023,3.0126074999861885,407.28033990002587,"[0, -300]",[-0.05925925925925926],[-0.21944444444444444],[1],[0],[0],[0.8013605000160169],[1],['target_find'],407.28078310002456,408.2943698000163,,,,,,,,,,,,,,,,,,,,,,,,,,,,,,,,,155954,001,2023-11-13_14h05.50.644,Selektive Wahrnehmung,2023.2.2,59.86772823418321,2023-11-13 14h05.59.795728 +0100,
person2,4,5,69,5,,,,,408.3149672000145,,,,,,,,,,408.2945913000149,408.3149672000145,410.31667749999906,411.2952978000103,3.0010009000252467,411.92965679999907,"[0, -300]",[-0.030555555555555555],[-0.18981481481481483],[1],[0],[0],[0.6339064000057988],[1],['target_find'],411.9300702000037,412.94528830001946,,,,,,,,,,,,,,,,,,,,,,,,,,,,,,,,,155954,001,2023-11-13_14h05.50.644,Selektive Wahrnehmung,2023.2.2,59.86772823418321,2023-11-13 14h05.59.795728 +0100,
gruppe1,4,6,70,6,,,,,412.9643047999998,,,,,,,,,,412.9454986000201,412.9643047999998,414.97561130000395,415.9634000000078,3.0183649000246078,416.63968670001486,"[300, 0]",[0.30185185185185187],[-0.046296296296296294],[1],[0],[0],[0.6755304999824148],[1],['target_find'],416.6400985000073,417.64353940001456,,,,,,,,,,,,,,,,,,,,,,,,,,,,,,,,,155954,001,2023-11-13_14h05.50.644,Selektive Wahrnehmung,2023.2.2,59.86772823418321,2023-11-13 14h05.59.795728 +0100,
gesicht1,4,7,71,8,,,,,417.66894140001386,,,,,,,,,,417.6439895000076,417.66894140001386,419.66856250001,420.6530231000215,3.009545499982778,421.48640460000024,"[-300, 300]",[-0.34444444444444444],[0.24444444444444444],[1],[0],[0],[0.8329364999954123],[1],['target_find'],421.48681750000105,422.49142180001945,,,,,,,,,,,,,,,,,,,,,,,,,,,,,,,,,155954,001,2023-11-13_14h05.50.644,Selektive Wahrnehmung,2023.2.2,59.86772823418321,2023-11-13 14h05.59.795728 +0100,
gesicht3,4,8,72,10,,,,,422.52900900001987,,,,,,,,,,422.49223470001016,422.52900900001987,424.53376730001764,425.49871710001025,3.007342199998675,426.1330461000034,"[300, 0]",[0.24444444444444444],[-0.04814814814814815],[1],[0],[0],[0.6338820999953896],[1],['target_find'],426.13346510002157,427.14808959999937,,,,,,,,,,,,,,,,,,,,,,,,,,,,,,,,,155954,001,2023-11-13_14h05.50.644,Selektive Wahrnehmung,2023.2.2,59.86772823418321,2023-11-13 14h05.59.795728 +0100,
auto1,4,9,73,12,,,,,427.16807240000344,,,,,,,,,,427.1483014000114,427.16807240000344,429.1855454000179,430.16936500000884,3.002944400010165,431.1801153999986,"[300, -300]",[0.19444444444444445],[-0.23055555555555557],[1],[0],[0],[1.0282356000097934],[1],['target_find'],431.18052540000645,432.1956517000217,,,,,,,,,,,,,,,,,,,,,,,,,,,,,,,,,155954,001,2023-11-13_14h05.50.644,Selektive Wahrnehmung,2023.2.2,59.86772823418321,2023-11-13 14h05.59.795728 +0100,
person1,4,10,74,4,,,,,432.2158885000099,,,,,,,,,,432.19588670000667,432.2158885000099,434.2283443000051,435.2140611000068,3.018657600012375,435.8125706000137,"[-300, 0]",[-0.2111111111111111],[-0.003703703703703704],[1],[0],[0],[0.597837699984666],[1],['target_find'],435.81298860002425,436.82774120001704,,,,,,,,,,,,,,,,,,,,,,,,,,,,,,,,,155954,001,2023-11-13_14h05.50.644,Selektive Wahrnehmung,2023.2.2,59.86772823418321,2023-11-13 14h05.59.795728 +0100,
spinne1,4,11,75,0,,,,,436.84830270000384,,,,,,,,,,436.82807620000676,436.84830270000384,438.85888670000713,439.8367941000033,3.009122000017669,440.67061310002464,"[300, 0]",[0.20833333333333334],[-0.03333333333333333],[1],[0],[0],[0.8333057000127155],[1],['target_find'],440.6710675000213,441.68734020000556,,,,,,,,,,,,,,,,,,,,,,,,,,,,,,,,,155954,001,2023-11-13_14h05.50.644,Selektive Wahrnehmung,2023.2.2,59.86772823418321,2023-11-13 14h05.59.795728 +0100,
gesicht2,4,12,76,9,,,,,441.70547440001974,,,,,,,,,,441.6875566000235,441.70547440001974,443.71859670002596,444.700390300015,3.0131273999868426,445.36775190001936,"[0, -300]",[-0.03796296296296296],[-0.21388888888888888],[1],[0],[0],[0.6669206000224221],[1],['target_find'],445.36816250000265,446.38223200000357,,,,,,,,,,,,,,,,,,,,,,,,,,,,,,,,,155954,001,2023-11-13_14h05.50.644,Selektive Wahrnehmung,2023.2.2,59.86772823418321,2023-11-13 14h05.59.795728 +0100,
schiff1,4,13,77,14,,,,,446.4015021000232,,,,,,,,,,446.38244810001925,446.4015021000232,448.41390380001394,449.3960036000062,2.9993240000039805,450.1969300000055,"[300, 300]",[0.24444444444444444],[0.2351851851851852],[1],[0],[0],[0.8148581999994349],[1],['target_find'],450.1973487000214,451.21372410000185,,,,,,,,,,,,,,,,,,,,,,,,,,,,,,,,,155954,001,2023-11-13_14h05.50.644,Selektive Wahrnehmung,2023.2.2,59.86772823418321,2023-11-13 14h05.59.795728 +0100,
zug1,4,14,78,15,,,,,451.23184660001425,,,,,,,,,,451.21399210000527,451.23184660001425,453.2279907000193,454.22836280000047,3.014711499999976,455.19623580001644,"[-300, -300]",[-0.29907407407407405],[-0.3037037037037037],[1],[0],[0],[0.9673734000243712],[1],['target_find'],455.196771500021,456.21210630002315,,,,,,,,,,,,,,,,,,,,,,,,,,,,,,,,,155954,001,2023-11-13_14h05.50.644,Selektive Wahrnehmung,2023.2.2,59.86772823418321,2023-11-13 14h05.59.795728 +0100,
gruppe2,4,15,79,7,,,,,456.231500599999,,,,,,,,,,456.2123199000198,456.231500599999,458.2441440000257,459.20997540000826,3.0156335000065155,460.211291500018,"[0, 300]",[0.01574074074074074],[0.24259259259259258],[1],[0],[0],[0.9831978000001982],[1],['target_find'],460.21170630000415,461.221569300018,,,,,,,,,,,,,,,,,,,,,,,,,,,,,,,,,155954,001,2023-11-13_14h05.50.644,Selektive Wahrnehmung,2023.2.2,59.86772823418321,2023-11-13 14h05.59.795728 +0100,
,,,,,0,0,0,0,470.36720470001455,,,,,,,,,,,,,,,,,,,,,,,,,,,,461.2300517000258,465.935811000003,465.9358245000185,470.3312377000111,470.3317221000034,482.1183310000051,1.0,3.0,gruppe2,,,,,,,,,,,,,,,,,,,,,,,155954,001,2023-11-13_14h05.50.644,Selektive Wahrnehmung,2023.2.2,59.86772823418321,2023-11-13 14h05.59.795728 +0100,
,,,,,1,0,1,0,482.14980790001573,,,,,,,,,,,,,,,,,,,,,,,,,,,,,,,,482.11865270001,490.4627713000227,1.0,4.0,gruppe1,,,,,,,,,,,,,,,,,,,,,,,155954,001,2023-11-13_14h05.50.644,Selektive Wahrnehmung,2023.2.2,59.86772823418321,2023-11-13 14h05.59.795728 +0100,
,,,,,2,0,2,0,490.4938691999996,,,,,,,,,,,,,,,,,,,,,,,,,,,,,,,,490.46305630001007,506.9272314000118,3.0,3.0,gesicht2,,,,,,,,,,,,,,,,,,,,,,,155954,001,2023-11-13_14h05.50.644,Selektive Wahrnehmung,2023.2.2,59.86772823418321,2023-11-13 14h05.59.795728 +0100,
,,,,,3,0,3,0,506.95947690002504,,,,,,,,,,,,,,,,,,,,,,,,,,,,,,,,506.927507800021,512.3581083000172,1.0,3.0,person2,,,,,,,,,,,,,,,,,,,,,,,155954,001,2023-11-13_14h05.50.644,Selektive Wahrnehmung,2023.2.2,59.86772823418321,2023-11-13 14h05.59.795728 +0100,
,,,,,4,0,4,0,512.3921517000126,,,,,,,,,,,,,,,,,,,,,,,,,,,,,,,,512.3583830000134,517.7863952000043,1.0,4.0,flugzeug1,,,,,,,,,,,,,,,,,,,,,,,155954,001,2023-11-13_14h05.50.644,Selektive Wahrnehmung,2023.2.2,59.86772823418321,2023-11-13 14h05.59.795728 +0100,
,,,,,,,,,,,,,,,,,,,,,,,,,,,,,,,,,,,,,,,,,,,,,,517.7899002000049,525.5136853000149,20,1.0,525.513703500008,539.5904913000122,3.0,1.0,539.5905086999992,542.6435552000185,542.6435687000048,556.5407639000041,4.0,4.0,4.0,2.0,556.5407840000116,570.7020490000141,2.0,3.0,570.7020684000163,715.3994420999952,,,,,,,,
