Target,trials.thisRepN,trials.thisTrialN,trials.thisN,trials.thisIndex,trials_2.thisRepN,trials_2.thisTrialN,trials_2.thisN,trials_2.thisIndex,thisRow.t,notes,Data_transparency.started,key_resp_data_transp.started,Data_transparency.stopped,key_resp_data_transp.keys,key_resp_data_transp.rt,key_resp_data_transp.duration,instructions.started,instructions.stopped,trial.started,target_show.started,target_show.stopped,target_find.started,mouse.started,trial.stopped,target_position_x_y,mouse.x,mouse.y,mouse.leftButton,mouse.midButton,mouse.rightButton,mouse.time,mouse.corr,mouse.clicked_name,feedback.started,feedback.stopped,instructions_survey.started,instructions_survey.stopped,instructions_ratings.started,instructions_ratings.stopped,survey_ratings.started,survey_ratings.stopped,furcht.response,liebenswert.response,rated_image,survey_gen.started,survey_gen.stopped,age.text,gender.response,survey_games.started,survey_games.stopped,pc_frequency.response,reaction_games_frequency.response,instructions_neuro.started,instructions_neuro.stopped,survey_neuro.started,survey_neuro.stopped,neuro_1_rev.response,neuro_2.response,neuro_3.response,neuro_4_rev.response,survey_fear.started,survey_fear.stopped,specific_fear_spider.response,specific_fear_snake.response,thanks.started,thanks.stopped,participant,session,date,expName,psychopyVersion,frameRate,expStart,
,,,,,,,,,,,0.004507901147007942,0.024336913600564003,1.8954578526318073,z,1.8671310152858496,None,,,,,,,,,,,,,,,,,,,,,,,,,,,,,,,,,,,,,,,,,,,,,,,,,,,250286,001,2023-11-06_13h59.35.775,Selektive Wahrnehmung,2023.2.3,60.1388003439243,2023-11-06 14h00.48.218455 +0100,
,,,,,,,,,,,,,,,,,1.8955050706863403,19.51279523409903,,,,,,,,,,,,,,,,,,,,,,,,,,,,,,,,,,,,,,,,,,,,,,,,,250286,001,2023-11-06_13h59.35.775,Selektive Wahrnehmung,2023.2.3,60.1388003439243,2023-11-06 14h00.48.218455 +0100,
schiff1,0,0,0,14,,,,,19.76827409118414,,,,,,,,,,19.534896686673164,19.76827409118414,21.776352357119322,22.52957441844046,3.0169259570538998,23.995194571092725,"[-300, -300]",[-0.20092592592592592],[-0.32037037037037036],[1],[0],[0],[1.4647625461220741],[1],['target_find'],23.997096944600344,25.010520234704018,,,,,,,,,,,,,,,,,,,,,,,,,,,,,,,,250286,001,2023-11-06_13h59.35.775,Selektive Wahrnehmung,2023.2.3,60.1388003439243,2023-11-06 14h00.48.218455 +0100,
flugzeug1,0,1,1,13,,,,,25.083059364929795,,,,,,,,,,25.011113304644823,25.083059364929795,27.093273820355535,28.01298524439335,3.002690291032195,29.37822583131492,"[300, 0]",[0.24074074074074073],[-0.017592592592592594],[1],[0],[0],[1.3644142728298903],[1],['target_find'],29.378997817635536,30.393887711688876,,,,,,,,,,,,,,,,,,,,,,,,,,,,,,,,250286,001,2023-11-06_13h59.35.775,Selektive Wahrnehmung,2023.2.3,60.1388003439243,2023-11-06 14h00.48.218455 +0100,
spinne1,0,2,2,0,,,,,30.430210893973708,,,,,,,,,,30.39448220282793,30.430210893973708,32.4434285312891,33.39660730026662,3.0029349140822887,34.245898716151714,"[-300, 0]",[-0.2324074074074074],[-0.008333333333333333],[1],[0],[0],[0.8485817238688469],[1],['target_find'],34.2464001942426,35.26086996123195,,,,,,,,,,,,,,,,,,,,,,,,,,,,,,,,250286,001,2023-11-06_13h59.35.775,Selektive Wahrnehmung,2023.2.3,60.1388003439243,2023-11-06 14h00.48.218455 +0100,
zug1,0,3,3,15,,,,,35.298561898991466,,,,,,,,,,35.261525893583894,35.298561898991466,37.30999890342355,38.276257921010256,3.01545537263155,39.5109201669693,"[300, 0]",[0.22777777777777777],[-0.04351851851851852],[1],[0],[0],[1.2341505270451307],[1],['target_find'],39.51140343956649,40.527787528932095,,,,,,,,,,,,,,,,,,,,,,,,,,,,,,,,250286,001,2023-11-06_13h59.35.775,Selektive Wahrnehmung,2023.2.3,60.1388003439243,2023-11-06 14h00.48.218455 +0100,
gesicht4,0,4,4,11,,,,,40.68227952718735,,,,,,,,,,40.52850888296962,40.68227952718735,42.6932676769793,43.54737504757941,3.019814223051071,44.561265114694834,"[300, 300]",[0.29907407407407405],[0.30277777777777776],[1],[0],[0],[1.013142827898264],[1],['target_find'],44.56189885921776,45.57725268416107,,,,,,,,,,,,,,,,,,,,,,,,,,,,,,,,250286,001,2023-11-06_13h59.35.775,Selektive Wahrnehmung,2023.2.3,60.1388003439243,2023-11-06 14h00.48.218455 +0100,
gruppe2,0,5,5,7,,,,,45.61399286612868,,,,,,,,,,45.57784603908658,45.61399286612868,47.62676818855107,48.57989148981869,3.0028706286102533,49.59539891593158,"[300, 0]",[0.30277777777777776],[-0.016666666666666666],[1],[0],[0],[1.0145192611962557],[1],['target_find'],49.596435436978936,50.61067309603095,,,,,,,,,,,,,,,,,,,,,,,,,,,,,,,,250286,001,2023-11-06_13h59.35.775,Selektive Wahrnehmung,2023.2.3,60.1388003439243,2023-11-06 14h00.48.218455 +0100,
gruppe1,0,6,6,6,,,,,50.81932218931615,,,,,,,,,,50.611268727108836,50.81932218931615,52.82682701200247,53.6151883918792,3.004726354032755,54.212518410757184,"[300, 0]",[0.1685185185185185],[-0.023148148148148147],[1],[0],[0],[0.5963264927268028],[1],['target_find'],54.21371137723327,55.22740716673434,,,,,,,,,,,,,,,,,,,,,,,,,,,,,,,,250286,001,2023-11-06_13h59.35.775,Selektive Wahrnehmung,2023.2.3,60.1388003439243,2023-11-06 14h00.48.218455 +0100,
schlange2,0,7,7,3,,,,,55.288072384893894,,,,,,,,,,55.2279865834862,55.288072384893894,57.29348681308329,58.22633679769933,2.9990047235041857,58.92947247251868,"[300, 0]",[0.21851851851851853],[-0.021296296296296296],[1],[0],[0],[0.7024231385439634],[1],['target_find'],58.930352265015244,59.94492585398257,,,,,,,,,,,,,,,,,,,,,,,,,,,,,,,,250286,001,2023-11-06_13h59.35.775,Selektive Wahrnehmung,2023.2.3,60.1388003439243,2023-11-06 14h00.48.218455 +0100,
gesicht2,0,8,8,9,,,,,59.98669219575822,,,,,,,,,,59.945871068164706,59.98669219575822,61.99347452446818,62.95969969406724,3.0148449521511793,64.1458866558969,"[-300, -300]",[-0.22314814814814815],[-0.26296296296296295],[1],[0],[0],[1.1853950638324022],[1],['target_find'],64.14694621786475,65.16054387204349,,,,,,,,,,,,,,,,,,,,,,,,,,,,,,,,250286,001,2023-11-06_13h59.35.775,Selektive Wahrnehmung,2023.2.3,60.1388003439243,2023-11-06 14h00.48.218455 +0100,
schlange1,0,9,9,2,,,,,65.19169952534139,,,,,,,,,,65.16102828457952,65.19169952534139,67.1935125850141,68.1655677575618,3.0051166135817766,68.87780229188502,"[300, 0]",[0.2777777777777778],[-0.07592592592592592],[1],[0],[0],[0.7116719000041485],[1],['target_find'],68.87831230275333,69.89411555230618,,,,,,,,,,,,,,,,,,,,,,,,,,,,,,,,250286,001,2023-11-06_13h59.35.775,Selektive Wahrnehmung,2023.2.3,60.1388003439243,2023-11-06 14h00.48.218455 +0100,
auto1,0,10,10,12,,,,,69.93037928640842,,,,,,,,,,69.89471004530787,69.93037928640842,71.9433682281524,72.89311458729208,2.999071853235364,73.79518523998559,"[-300, 0]",[-0.21851851851851853],[-0.05555555555555555],[1],[0],[0],[0.9014477152377367],[1],['target_find'],73.79596234671772,74.81152808479965,,,,,,,,,,,,,,,,,,,,,,,,,,,,,,,,250286,001,2023-11-06_13h59.35.775,Selektive Wahrnehmung,2023.2.3,60.1388003439243,2023-11-06 14h00.48.218455 +0100,
person2,0,11,11,5,,,,,74.84670864790678,,,,,,,,,,74.81235326267779,74.84670864790678,76.86041126400232,77.83205996453762,3.020698281005025,78.77815090864897,"[0, -300]",[-0.0787037037037037],[-0.18888888888888888],[1],[0],[0],[0.9453934822231531],[1],['target_find'],78.77870756946504,79.79426192864776,,,,,,,,,,,,,,,,,,,,,,,,,,,,,,,,250286,001,2023-11-06_13h59.35.775,Selektive Wahrnehmung,2023.2.3,60.1388003439243,2023-11-06 14h00.48.218455 +0100,
spinne2,0,12,12,1,,,,,80.23904584348202,,,,,,,,,,79.79484817199409,80.23904584348202,82.24389280378819,82.79414388351142,2.9999510757625103,83.89619087055326,"[300, -300]",[0.2],[-0.22314814814814815],[1],[0],[0],[1.1013202276080847],[1],['target_find'],83.89722625352442,84.91083158925176,,,,,,,,,,,,,,,,,,,,,,,,,,,,,,,,250286,001,2023-11-06_13h59.35.775,Selektive Wahrnehmung,2023.2.3,60.1388003439243,2023-11-06 14h00.48.218455 +0100,
person1,0,13,13,4,,,,,85.01005004532635,,,,,,,,,,84.91136037558317,85.01005004532635,87.01031116768718,87.90991169214249,2.999152921140194,88.66124161891639,"[-300, 0]",[-0.262037037037037],[-0.05462962962962963],[1],[0],[0],[0.7508096750825644],[1],['target_find'],88.66171806491911,89.67846055701375,,,,,,,,,,,,,,,,,,,,,,,,,,,,,,,,250286,001,2023-11-06_13h59.35.775,Selektive Wahrnehmung,2023.2.3,60.1388003439243,2023-11-06 14h00.48.218455 +0100,
gesicht3,0,14,14,10,,,,,89.71598182618618,,,,,,,,,,89.67940008081496,89.71598182618618,91.72708346880972,92.6967894025147,3.0185657888650894,93.57943495362997,"[300, -300]",[0.38333333333333336],[-0.2916666666666667],[1],[0],[0],[0.8815948087722063],[1],['target_find'],93.58065209910274,94.59497139416635,,,,,,,,,,,,,,,,,,,,,,,,,,,,,,,,250286,001,2023-11-06_13h59.35.775,Selektive Wahrnehmung,2023.2.3,60.1388003439243,2023-11-06 14h00.48.218455 +0100,
gesicht1,0,15,15,8,,,,,94.63124138489366,,,,,,,,,,94.59581250138581,94.63124138489366,96.64379796944559,97.61147182062268,3.016665691509843,98.62859603762627,"[300, 300]",[0.3638888888888889],[0.2037037037037037],[1],[0],[0],[1.0163030214607716],[1],['target_find'],98.62951138429344,99.64474318362772,,,,,,,,,,,,,,,,,,,,,,,,,,,,,,,,250286,001,2023-11-06_13h59.35.775,Selektive Wahrnehmung,2023.2.3,60.1388003439243,2023-11-06 14h00.48.218455 +0100,
auto1,1,0,16,12,,,,,99.6818915437907,,,,,,,,,,99.64546567574143,99.6818915437907,101.69380755536258,102.64347796700895,3.0151831582188606,103.64607325196266,"[-300, 0]",[-0.17962962962962964],[0.005555555555555556],[1],[0],[0],[0.9857711587101221],[1],['target_find'],103.64656762033701,104.66164297237992,,,,,,,,,,,,,,,,,,,,,,,,,,,,,,,,250286,001,2023-11-06_13h59.35.775,Selektive Wahrnehmung,2023.2.3,60.1388003439243,2023-11-06 14h00.48.218455 +0100,
flugzeug1,1,1,17,13,,,,,104.7006211746484,,,,,,,,,,104.66239334084094,104.7006211746484,106.71048888936639,107.68165460042655,2.999066447839141,108.46671953611076,"[-300, -300]",[-0.3277777777777778],[-0.21944444444444444],[1],[0],[0],[0.8043594751507044],[1],['target_find'],108.46861110255122,109.47821513563395,,,,,,,,,,,,,,,,,,,,,,,,,,,,,,,,250286,001,2023-11-06_13h59.35.775,Selektive Wahrnehmung,2023.2.3,60.1388003439243,2023-11-06 14h00.48.218455 +0100,
person1,1,2,18,4,,,,,109.5080065857619,,,,,,,,,,109.47893250919878,109.5080065857619,111.51054242253304,112.48152978532016,3.0035476107150316,113.27879688516259,"[-300, 300]",[-0.20092592592592592],[0.2898148148148148],[1],[0],[0],[0.7964606955647469],[1],['target_find'],113.27941100485623,114.29431369714439,,,,,,,,,,,,,,,,,,,,,,,,,,,,,,,,250286,001,2023-11-06_13h59.35.775,Selektive Wahrnehmung,2023.2.3,60.1388003439243,2023-11-06 14h00.48.218455 +0100,
zug1,1,3,19,15,,,,,114.3288545422256,,,,,,,,,,114.29487377218902,114.3288545422256,116.34390884637833,117.29376272670925,2.999553419649601,118.16225396282971,"[0, -300]",[-0.09814814814814815],[-0.30925925925925923],[1],[0],[0],[0.8677610624581575],[1],['target_find'],118.16302338801324,119.17829785309732,,,,,,,,,,,,,,,,,,,,,,,,,,,,,,,,250286,001,2023-11-06_13h59.35.775,Selektive Wahrnehmung,2023.2.3,60.1388003439243,2023-11-06 14h00.48.218455 +0100,
schlange2,1,4,20,3,,,,,119.21792316995561,,,,,,,,,,119.17901351861656,119.21792316995561,121.227215167135,122.19857714511454,2.999102856963873,123.24501039087772,"[300, 300]",[0.2388888888888889],[0.20277777777777778],[1],[0],[0],[1.066628910601139],[1],['target_find'],123.24548143334687,124.26151821389794,,,,,,,,,,,,,,,,,,,,,,,,,,,,,,,,250286,001,2023-11-06_13h59.35.775,Selektive Wahrnehmung,2023.2.3,60.1388003439243,2023-11-06 14h00.48.218455 +0100,
gesicht2,1,5,21,9,,,,,124.2985766902566,,,,,,,,,,124.26223729364574,124.2985766902566,126.31043438985944,127.26561992429197,3.0043358094990253,127.82989248633385,"[300, 0]",[0.24722222222222223],[0.041666666666666664],[1],[0],[0],[0.5635477919131517],[1],['target_find'],127.8303621057421,128.84526252374053,,,,,,,,,,,,,,,,,,,,,,,,,,,,,,,,250286,001,2023-11-06_13h59.35.775,Selektive Wahrnehmung,2023.2.3,60.1388003439243,2023-11-06 14h00.48.218455 +0100,
person2,1,6,22,5,,,,,128.88331969082355,,,,,,,,,,128.8461699075997,128.88331969082355,130.8938746266067,131.8600690755993,3.014877947047353,132.6287021357566,"[0, -300]",[-0.023148148148148147],[-0.26296296296296295],[1],[0],[0],[0.7679791208356619],[1],['target_find'],132.62946871854365,133.6447812989354,,,,,,,,,,,,,,,,,,,,,,,,,,,,,,,,250286,001,2023-11-06_13h59.35.775,Selektive Wahrnehmung,2023.2.3,60.1388003439243,2023-11-06 14h00.48.218455 +0100,
spinne1,1,7,23,0,,,,,133.6816361118108,,,,,,,,,,133.64534962177277,133.6816361118108,135.6939696893096,136.64803791977465,3.0034656897187233,137.32928206399083,"[300, 0]",[0.25092592592592594],[-0.07037037037037037],[1],[0],[0],[0.6803381834179163],[1],['target_find'],137.3301555979997,138.3445482812822,,,,,,,,,,,,,,,,,,,,,,,,,,,,,,,,250286,001,2023-11-06_13h59.35.775,Selektive Wahrnehmung,2023.2.3,60.1388003439243,2023-11-06 14h00.48.218455 +0100,
spinne2,1,8,24,1,,,,,138.61616062931716,,,,,,,,,,138.3451288342476,138.61616062931716,140.6273806001991,141.34580553136766,3.001339456066489,142.7621300574392,"[300, -300]",[0.1935185185185185],[-0.24537037037037038],[1],[0],[0],[1.4157280419021845],[1],['target_find'],142.76285511069,143.77837448194623,,,,,,,,,,,,,,,,,,,,,,,,,,,,,,,,250286,001,2023-11-06_13h59.35.775,Selektive Wahrnehmung,2023.2.3,60.1388003439243,2023-11-06 14h00.48.218455 +0100,
gesicht3,1,9,25,10,,,,,143.81587157398462,,,,,,,,,,143.77913025580347,143.81587157398462,145.82743117399514,146.77697557769716,3.015232650563121,147.9128167387098,"[-300, 300]",[-0.22962962962962963],[0.2962962962962963],[1],[0],[0],[1.1186336018145084],[1],['target_find'],147.9135065190494,148.9287633486092,,,,,,,,,,,,,,,,,,,,,,,,,,,,,,,,250286,001,2023-11-06_13h59.35.775,Selektive Wahrnehmung,2023.2.3,60.1388003439243,2023-11-06 14h00.48.218455 +0100,
schlange1,1,10,26,2,,,,,148.96769490092993,,,,,,,,,,148.92962209135294,148.96769490092993,150.97735042124987,151.94898717291653,3.0204599145799875,152.74605373851955,"[300, -300]",[0.20277777777777778],[-0.3101851851851852],[1],[0],[0],[0.7961506489664316],[1],['target_find'],152.74693096987903,153.7614448275417,,,,,,,,,,,,,,,,,,,,,,,,,,,,,,,,250286,001,2023-11-06_13h59.35.775,Selektive Wahrnehmung,2023.2.3,60.1388003439243,2023-11-06 14h00.48.218455 +0100,
schiff1,1,11,27,14,,,,,153.7971772160381,,,,,,,,,,153.76205837726593,153.7971772160381,155.8105285409838,156.76042736321688,2.999051656574011,157.72936244867742,"[300, 0]",[0.1962962962962963],[-0.08425925925925926],[1],[0],[0],[0.9682461563497782],[1],['target_find'],157.73024053312838,158.74537391401827,,,,,,,,,,,,,,,,,,,,,,,,,,,,,,,,250286,001,2023-11-06_13h59.35.775,Selektive Wahrnehmung,2023.2.3,60.1388003439243,2023-11-06 14h00.48.218455 +0100,
gesicht4,1,12,28,11,,,,,158.78577150031924,,,,,,,,,,158.74621701054275,158.78577150031924,160.7943031731993,161.76029481180012,3.014973521232605,162.2954907361418,"[0, -300]",[0.06851851851851852],[-0.22685185185185186],[1],[0],[0],[0.5347388200461864],[1],['target_find'],162.29596888832748,163.311514146626,,,,,,,,,,,,,,,,,,,,,,,,,,,,,,,,250286,001,2023-11-06_13h59.35.775,Selektive Wahrnehmung,2023.2.3,60.1388003439243,2023-11-06 14h00.48.218455 +0100,
gruppe1,1,13,29,6,,,,,163.34608770161867,,,,,,,,,,163.3120952695608,163.34608770161867,165.36041666939855,166.31038404256105,3.0154516752809286,166.99623222835362,"[300, 0]",[0.2351851851851852],[-0.05092592592592592],[1],[0],[0],[0.6688021924346685],[1],['target_find'],166.99671038240194,168.01180849038064,,,,,,,,,,,,,,,,,,,,,,,,,,,,,,,,250286,001,2023-11-06_13h59.35.775,Selektive Wahrnehmung,2023.2.3,60.1388003439243,2023-11-06 14h00.48.218455 +0100,
gruppe2,1,14,30,7,,,,,168.05000873282552,,,,,,,,,,168.01252643205225,168.05000873282552,170.06086006201804,171.0104238074273,3.015231229364872,171.94648746214807,"[300, 300]",[0.24537037037037038],[0.20185185185185187],[1],[0],[0],[0.9188708867877722],[1],['target_find'],171.94728305749595,172.96179975941777,,,,,,,,,,,,,,,,,,,,,,,,,,,,,,,,250286,001,2023-11-06_13h59.35.775,Selektive Wahrnehmung,2023.2.3,60.1388003439243,2023-11-06 14h00.48.218455 +0100,
gesicht1,1,15,31,8,,,,,172.9998384360224,,,,,,,,,,172.962527371943,172.9998384360224,175.0109736416489,175.977955436334,3.0163209419697523,176.93061850592494,"[0, 300]",[-0.004629629629629629],[0.26851851851851855],[1],[0],[0],[0.9516143165528774],[1],['target_find'],176.93189481459558,177.94481861777604,,,,,,,,,,,,,,,,,,,,,,,,,,,,,,,,250286,001,2023-11-06_13h59.35.775,Selektive Wahrnehmung,2023.2.3,60.1388003439243,2023-11-06 14h00.48.218455 +0100,
schlange1,2,0,32,2,,,,,177.97014511935413,,,,,,,,,,177.9453653227538,177.97014511935413,179.97761893831193,180.94401306658983,2.99926470592618,181.51181531697512,"[300, 0]",[0.3388888888888889],[0.03611111111111111],[1],[0],[0],[0.56730105727911],[1],['target_find'],181.51228892058134,182.52854557707906,,,,,,,,,,,,,,,,,,,,,,,,,,,,,,,,250286,001,2023-11-06_13h59.35.775,Selektive Wahrnehmung,2023.2.3,60.1388003439243,2023-11-06 14h00.48.218455 +0100,
spinne2,2,1,33,1,,,,,182.7486814521253,,,,,,,,,,182.52925413288176,182.7486814521253,184.76110491342843,185.53466571681201,3.006293650716543,186.7963594328612,"[-300, -300]",[-0.3712962962962963],[-0.2759259259259259],[1],[0],[0],[1.2607089653611183],[1],['target_find'],186.79740135930479,187.81233249790967,,,,,,,,,,,,,,,,,,,,,,,,,,,,,,,,250286,001,2023-11-06_13h59.35.775,Selektive Wahrnehmung,2023.2.3,60.1388003439243,2023-11-06 14h00.48.218455 +0100,
gesicht2,2,2,34,9,,,,,187.85315504670143,,,,,,,,,,187.8130854256451,187.85315504670143,189.86111185513437,190.83263511396945,3.0205532144755125,191.77866433374584,"[300, 300]",[0.10833333333333334],[0.19907407407407407],[1],[0],[0],[0.9452435784041882],[0],['dis3'],191.77913822047412,192.7955288514495,,,,,,,,,,,,,,,,,,,,,,,,,,,,,,,,250286,001,2023-11-06_13h59.35.775,Selektive Wahrnehmung,2023.2.3,60.1388003439243,2023-11-06 14h00.48.218455 +0100,
schiff1,2,3,35,14,,,,,192.8322997521609,,,,,,,,,,192.79626044631004,192.8322997521609,194.84439695440233,195.81553962640464,2.999005576595664,196.99706366471946,"[-300, 300]",[-0.22407407407407406],[0.1925925925925926],[1],[0],[0],[1.2013775147497654],[1],['target_find'],196.99818808026612,198.01079330407083,,,,,,,,,,,,,,,,,,,,,,,,,,,,,,,,250286,001,2023-11-06_13h59.35.775,Selektive Wahrnehmung,2023.2.3,60.1388003439243,2023-11-06 14h00.48.218455 +0100,
schlange2,2,4,36,3,,,,,198.03279747627676,,,,,,,,,,198.01105214841664,198.03279747627676,200.04448991268873,201.01294912025332,3.0023634620010853,201.6464305166155,"[-300, 0]",[-0.20925925925925926],[0.022222222222222223],[1],[0],[0],[0.632849358022213],[1],['target_find'],201.64691777154803,202.6617519147694,,,,,,,,,,,,,,,,,,,,,,,,,,,,,,,,250286,001,2023-11-06_13h59.35.775,Selektive Wahrnehmung,2023.2.3,60.1388003439243,2023-11-06 14h00.48.218455 +0100,
gesicht1,2,5,37,8,,,,,202.69644635915756,,,,,,,,,,202.66237940266728,202.69644635915756,204.7111129630357,205.66419473662972,3.0026803351938725,206.78005726449192,"[0, -300]",[0.11944444444444445],[-0.2759259259259259],[1],[0],[0],[1.1148365307599306],[1],['target_find'],206.78110118210316,207.7951135598123,,,,,,,,,,,,,,,,,,,,,,,,,,,,,,,,250286,001,2023-11-06_13h59.35.775,Selektive Wahrnehmung,2023.2.3,60.1388003439243,2023-11-06 14h00.48.218455 +0100,
flugzeug1,2,6,38,13,,,,,207.82036809623241,,,,,,,,,,207.79569183848798,207.82036809623241,209.82794146984816,210.79434470273554,2.999329561367631,211.82943253591657,"[300, 300]",[0.31296296296296294],[0.20185185185185187],[1],[0],[0],[1.0344333238899708],[1],['target_find'],211.83020167797804,212.8454787041992,,,,,,,,,,,,,,,,,,,,,,,,,,,,,,,,250286,001,2023-11-06_13h59.35.775,Selektive Wahrnehmung,2023.2.3,60.1388003439243,2023-11-06 14h00.48.218455 +0100,
gesicht4,2,7,39,11,,,,,212.88383055478334,,,,,,,,,,212.84618811123073,212.88383055478334,214.89471630193293,215.84968964196742,3.004391560330987,216.47982140257955,"[300, 300]",[0.2657407407407407],[0.2518518518518518],[1],[0],[0],[0.6293270625174046],[1],['target_find'],216.48059566505253,217.4956092927605,,,,,,,,,,,,,,,,,,,,,,,,,,,,,,,,250286,001,2023-11-06_13h59.35.775,Selektive Wahrnehmung,2023.2.3,60.1388003439243,2023-11-06 14h00.48.218455 +0100,
gesicht3,2,8,40,10,,,,,217.53160962834954,,,,,,,,,,217.49631841666996,217.53160962834954,219.54429079964757,220.5107133742422,3.0151805989444256,221.51272326894104,"[0, -300]",[0.05462962962962963],[-0.23796296296296296],[1],[0],[0],[1.0015431195497513],[1],['target_find'],221.5132224727422,222.52919752709568,,,,,,,,,,,,,,,,,,,,,,,,,,,,,,,,250286,001,2023-11-06_13h59.35.775,Selektive Wahrnehmung,2023.2.3,60.1388003439243,2023-11-06 14h00.48.218455 +0100,
person2,2,9,41,5,,,,,222.56969410181046,,,,,,,,,,222.5300081986934,222.56969410181046,224.57785400375724,225.54811972752213,3.0191287081688643,226.61256807483733,"[-300, -300]",[-0.2574074074074074],[-0.2712962962962963],[1],[0],[0],[1.063631420955062],[1],['target_find'],226.61334688961506,227.6289171781391,,,,,,,,,,,,,,,,,,,,,,,,,,,,,,,,250286,001,2023-11-06_13h59.35.775,Selektive Wahrnehmung,2023.2.3,60.1388003439243,2023-11-06 14h00.48.218455 +0100,
gruppe2,2,10,42,7,,,,,227.66808652691543,,,,,,,,,,227.62963568791747,227.66808652691543,229.6779568027705,230.64504924602807,3.0162933506071568,231.58065494336188,"[0, 300]",[0.037037037037037035],[0.16574074074074074],[1],[0],[0],[0.9345805533230305],[1],['target_find'],231.5819212961942,232.595875646919,,,,,,,,,,,,,,,,,,,,,,,,,,,,,,,,250286,001,2023-11-06_13h59.35.775,Selektive Wahrnehmung,2023.2.3,60.1388003439243,2023-11-06 14h00.48.218455 +0100,
spinne1,2,11,43,0,,,,,232.6365588195622,,,,,,,,,,232.5967036690563,232.6365588195622,234.64473607204854,235.61633556336164,2.9990158174186945,236.31301658973098,"[0, -300]",[0.062037037037037036],[-0.21481481481481482],[1],[0],[0],[0.7169702760875225],[1],['target_find'],236.31380222924054,237.32800376415253,,,,,,,,,,,,,,,,,,,,,,,,,,,,,,,,250286,001,2023-11-06_13h59.35.775,Selektive Wahrnehmung,2023.2.3,60.1388003439243,2023-11-06 14h00.48.218455 +0100,
gruppe1,2,12,44,6,,,,,237.34808081574738,,,,,,,,,,237.32825606875122,237.34808081574738,239.36108739301562,240.32773524709046,2.999815110117197,241.46366117335856,"[300, -300]",[0.24259259259259258],[-0.23981481481481481],[1],[0],[0],[1.135318635031581],[1],['target_find'],241.46444937214255,242.47864152118564,,,,,,,,,,,,,,,,,,,,,,,,,,,,,,,,250286,001,2023-11-06_13h59.35.775,Selektive Wahrnehmung,2023.2.3,60.1388003439243,2023-11-06 14h00.48.218455 +0100,
zug1,2,13,45,15,,,,,242.5099115204066,,,,,,,,,,242.47917087562382,242.5099115204066,244.511534569785,245.4983843471855,2.999835304915905,246.0969275292009,"[300, 0]",[0.24722222222222223],[-0.05740740740740741],[1],[0],[0],[0.6176030524075031],[1],['target_find'],246.09741307795048,247.11210129968822,,,,,,,,,,,,,,,,,,,,,,,,,,,,,,,,250286,001,2023-11-06_13h59.35.775,Selektive Wahrnehmung,2023.2.3,60.1388003439243,2023-11-06 14h00.48.218455 +0100,
auto1,2,14,46,12,,,,,247.1464350670576,,,,,,,,,,247.11268071644008,247.1464350670576,249.16122654266655,250.11106506362557,2.999036580324173,251.31257882714272,"[-300, -300]",[-0.26944444444444443],[-0.23703703703703705],[1],[0],[0],[1.2009849790483713],[1],['target_find'],251.31306665204465,252.32897827588022,,,,,,,,,,,,,,,,,,,,,,,,,,,,,,,,250286,001,2023-11-06_13h59.35.775,Selektive Wahrnehmung,2023.2.3,60.1388003439243,2023-11-06 14h00.48.218455 +0100,
person1,2,15,47,4,,,,,252.36314251460135,,,,,,,,,,252.32964103482664,252.36314251460135,254.3781080711633,255.34432755038142,2.9990929011255503,256.46303055621684,"[-300, -300]",[-0.30277777777777776],[-0.20092592592592592],[1],[0],[0],[1.1340565457940102],[1],['target_find'],256.4637285862118,257.4782302118838,,,,,,,,,,,,,,,,,,,,,,,,,,,,,,,,250286,001,2023-11-06_13h59.35.775,Selektive Wahrnehmung,2023.2.3,60.1388003439243,2023-11-06 14h00.48.218455 +0100,
gruppe1,3,0,48,6,,,,,257.4986136108637,,,,,,,,,,257.4784691464156,257.4986136108637,259.5113451294601,260.4776362888515,2.999490274116397,261.01303871907294,"[0, -300]",[0.014814814814814815],[-0.25833333333333336],[1],[0],[0],[0.5347698237746954],[1],['target_find'],261.01382862590253,262.0289355516434,,,,,,,,,,,,,,,,,,,,,,,,,,,,,,,,250286,001,2023-11-06_13h59.35.775,Selektive Wahrnehmung,2023.2.3,60.1388003439243,2023-11-06 14h00.48.218455 +0100,
schlange1,3,1,49,2,,,,,262.0657937787473,,,,,,,,,,262.02954768016934,262.0657937787473,264.0779976490885,265.0329212099314,3.0041989907622337,266.0977222714573,"[300, -300]",[0.28055555555555556],[-0.3037037037037037],[1],[0],[0],[1.0638083461672068],[1],['target_find'],266.0988318938762,267.1119289249182,,,,,,,,,,,,,,,,,,,,,,,,,,,,,,,,250286,001,2023-11-06_13h59.35.775,Selektive Wahrnehmung,2023.2.3,60.1388003439243,2023-11-06 14h00.48.218455 +0100,
spinne1,3,2,50,0,,,,,267.14627350308,,,,,,,,,,267.1124011054635,267.14627350308,269.1616426873952,270.1110448669642,2.999190751463175,270.94676650315523,"[300, -300]",[0.2351851851851852],[-0.2722222222222222],[1],[0],[0],[0.8350913040339947],[1],['target_find'],270.9474707916379,271.9625697545707,,,,,,,,,,,,,,,,,,,,,,,,,,,,,,,,250286,001,2023-11-06_13h59.35.775,Selektive Wahrnehmung,2023.2.3,60.1388003439243,2023-11-06 14h00.48.218455 +0100,
auto1,3,3,51,12,,,,,272.0021444391459,,,,,,,,,,271.9632780235261,272.0021444391459,274.0115621611476,274.98224488273263,2.999740583822131,275.8132014796138,"[-300, 300]",[-0.2518518518518518],[0.27870370370370373],[1],[0],[0],[0.8497860673815012],[1],['target_find'],275.81407643668354,276.82940238527954,,,,,,,,,,,,,,,,,,,,,,,,,,,,,,,,250286,001,2023-11-06_13h59.35.775,Selektive Wahrnehmung,2023.2.3,60.1388003439243,2023-11-06 14h00.48.218455 +0100,
spinne2,3,4,52,1,,,,,277.02215635217726,,,,,,,,,,276.83011492341757,277.02215635217726,279.0282324012369,279.8482870385051,3.019060157239437,280.59850307554007,"[0, -300]",[0.08148148148148149],[-0.24166666666666667],[1],[0],[0],[0.7491101119667292],[1],['target_find'],280.59987040795386,281.6123208925128,,,,,,,,,,,,,,,,,,,,,,,,,,,,,,,,250286,001,2023-11-06_13h59.35.775,Selektive Wahrnehmung,2023.2.3,60.1388003439243,2023-11-06 14h00.48.218455 +0100,
flugzeug1,3,5,53,13,,,,,281.6498543918133,,,,,,,,,,281.6129532158375,281.6498543918133,283.66183668002486,284.62817704863846,2.9993736501783133,285.4299469292164,"[0, 300]",[0.06666666666666667],[0.3101851851851852],[1],[0],[0],[0.8172966483980417],[1],['target_find'],285.4308278579265,286.44493325054646,,,,,,,,,,,,,,,,,,,,,,,,,,,,,,,,250286,001,2023-11-06_13h59.35.775,Selektive Wahrnehmung,2023.2.3,60.1388003439243,2023-11-06 14h00.48.218455 +0100,
gesicht2,3,6,54,9,,,,,286.46885515749454,,,,,,,,,,286.4452248066664,286.46885515749454,288.4783499632031,289.4445700123906,2.9997283555567265,290.24688858911395,"[300, -300]",[0.23425925925925925],[-0.22314814814814815],[1],[0],[0],[0.8017829656600952],[1],['target_find'],290.2473693024367,291.2623061295599,,,,,,,,,,,,,,,,,,,,,,,,,,,,,,,,250286,001,2023-11-06_13h59.35.775,Selektive Wahrnehmung,2023.2.3,60.1388003439243,2023-11-06 14h00.48.218455 +0100,
gesicht1,3,7,55,8,,,,,291.2970193475485,,,,,,,,,,291.26288696751,291.2970193475485,293.3116122800857,294.26158932596445,2.9993850272148848,295.09695682674646,"[0, 300]",[0.05555555555555555],[0.17962962962962964],[1],[0],[0],[0.834660368040204],[1],['target_find'],295.09782694652677,296.11290713585913,,,,,,,,,,,,,,,,,,,,,,,,,,,,,,,,250286,001,2023-11-06_13h59.35.775,Selektive Wahrnehmung,2023.2.3,60.1388003439243,2023-11-06 14h00.48.218455 +0100,
gruppe2,3,8,56,7,,,,,296.1522280946374,,,,,,,,,,296.1136364545673,296.1522280946374,298.16185289248824,299.1295466572046,3.0168118942528963,299.9476952198893,"[-300, 0]",[-0.21203703703703702],[0.019444444444444445],[1],[0],[0],[0.8173068892210722],[1],['target_find'],299.948571883142,300.9628138076514,,,,,,,,,,,,,,,,,,,,,,,,,,,,,,,,250286,001,2023-11-06_13h59.35.775,Selektive Wahrnehmung,2023.2.3,60.1388003439243,2023-11-06 14h00.48.218455 +0100,
gesicht4,3,9,57,11,,,,,301.0034895837307,,,,,,,,,,300.96352577768266,301.0034895837307,303.0115672815591,303.9779281299561,3.015177469700575,304.54746607132256,"[300, 0]",[0.29259259259259257],[-0.022222222222222223],[1],[0],[0],[0.5687591265887022],[1],['target_find'],304.54850970208645,305.5629052296281,,,,,,,,,,,,,,,,,,,,,,,,,,,,,,,,250286,001,2023-11-06_13h59.35.775,Selektive Wahrnehmung,2023.2.3,60.1388003439243,2023-11-06 14h00.48.218455 +0100,
person2,3,10,58,5,,,,,305.6018430404365,,,,,,,,,,305.56363085098565,305.6018430404365,307.6118319295347,308.57788188010454,2.9990252032876015,309.1976925171912,"[-300, 0]",[-0.13518518518518519],[-0.012037037037037037],[1],[0],[0],[0.6346535999327898],[0],['dis8'],309.198572024703,310.2130807619542,,,,,,,,,,,,,,,,,,,,,,,,,,,,,,,,250286,001,2023-11-06_13h59.35.775,Selektive Wahrnehmung,2023.2.3,60.1388003439243,2023-11-06 14h00.48.218455 +0100,
zug1,3,11,59,15,,,,,310.25007267668843,,,,,,,,,,310.21391532570124,310.25007267668843,312.2618146073073,313.23311201669276,3.0202465802431107,313.8293949905783,"[300, 0]",[0.26944444444444443],[-0.044444444444444446],[1],[0],[0],[0.59552919305861],[1],['target_find'],313.8298685923219,314.8461966458708,,,,,,,,,,,,,,,,,,,,,,,,,,,,,,,,250286,001,2023-11-06_13h59.35.775,Selektive Wahrnehmung,2023.2.3,60.1388003439243,2023-11-06 14h00.48.218455 +0100,
schiff1,3,12,60,14,,,,,314.8814164623618,,,,,,,,,,314.8469083290547,314.8814164623618,316.89510087296367,317.86288537457585,3.01686935313046,318.6471868585795,"[-300, 300]",[-0.20092592592592592],[0.2074074074074074],[1],[0],[0],[0.7834424562752247],[1],['target_find'],318.6480680722743,319.66287206299603,,,,,,,,,,,,,,,,,,,,,,,,,,,,,,,,250286,001,2023-11-06_13h59.35.775,Selektive Wahrnehmung,2023.2.3,60.1388003439243,2023-11-06 14h00.48.218455 +0100,
schlange2,3,13,61,3,,,,,319.7030267342925,,,,,,,,,,319.66357834264636,319.7030267342925,321.71197654120624,322.66601007059216,3.0033550411462784,323.63014228641987,"[300, -300]",[0.2824074074074074],[-0.2740740740740741],[1],[0],[0],[0.9633022025227547],[1],['target_find'],323.63092650286853,324.6458809673786,,,,,,,,,,,,,,,,,,,,,,,,,,,,,,,,250286,001,2023-11-06_13h59.35.775,Selektive Wahrnehmung,2023.2.3,60.1388003439243,2023-11-06 14h00.48.218455 +0100,
gesicht3,3,14,62,10,,,,,324.6705060247332,,,,,,,,,,324.64649423211813,324.6705060247332,326.67852484062314,327.64465955644846,3.015550661832094,328.3792242370546,"[300, 0]",[0.1824074074074074],[-0.0787037037037037],[1],[0],[0],[0.7173630949109793],[1],['target_find'],328.37971092388034,329.3962477594614,,,,,,,,,,,,,,,,,,,,,,,,,,,,,,,,250286,001,2023-11-06_13h59.35.775,Selektive Wahrnehmung,2023.2.3,60.1388003439243,2023-11-06 14h00.48.218455 +0100,
person1,3,15,63,4,,,,,329.43343708105385,,,,,,,,,,329.3969620037824,329.43343708105385,331.4447933025658,332.39516345225275,3.015141911804676,333.4297609012574,"[-300, -300]",[-0.21296296296296297],[-0.2611111111111111],[1],[0],[0],[1.0177980698645115],[1],['target_find'],333.43045039847493,334.44553627446294,,,,,,,,,,,,,,,,,,,,,,,,,,,,,,,,250286,001,2023-11-06_13h59.35.775,Selektive Wahrnehmung,2023.2.3,60.1388003439243,2023-11-06 14h00.48.218455 +0100,
flugzeug1,4,0,64,13,,,,,334.46822340227664,,,,,,,,,,334.4458008091897,334.46822340227664,336.478207455948,337.4457823205739,3.0004403218626976,338.1138276029378,"[300, 0]",[0.35185185185185186],[-0.08703703703703704],[1],[0],[0],[0.6672400142997503],[1],['target_find'],338.1146274637431,339.1293469760567,,,,,,,,,,,,,,,,,,,,,,,,,,,,,,,,250286,001,2023-11-06_13h59.35.775,Selektive Wahrnehmung,2023.2.3,60.1388003439243,2023-11-06 14h00.48.218455 +0100,
gesicht2,4,1,65,9,,,,,339.15329192206264,,,,,,,,,,339.12994744069874,339.15329192206264,341.1617954354733,342.1448353435844,2.9992044046521187,342.79689646698534,"[300, -300]",[0.22592592592592592],[-0.21851851851851853],[1],[0],[0],[0.6674195006489754],[1],['target_find'],342.797678694129,343.8126928899437,,,,,,,,,,,,,,,,,,,,,,,,,,,,,,,,250286,001,2023-11-06_13h59.35.775,Selektive Wahrnehmung,2023.2.3,60.1388003439243,2023-11-06 14h00.48.218455 +0100,
gesicht4,4,2,66,11,,,,,343.8489600382745,,,,,,,,,,343.81328027136624,343.8489600382745,345.86202634871006,346.8150845132768,3.0026260055601597,348.01294798217714,"[-300, -300]",[-0.2574074074074074],[-0.23981481481481481],[1],[0],[0],[1.197118790820241],[1],['target_find'],348.01341987773776,349.0290931351483,,,,,,,,,,,,,,,,,,,,,,,,,,,,,,,,250286,001,2023-11-06_13h59.35.775,Selektive Wahrnehmung,2023.2.3,60.1388003439243,2023-11-06 14h00.48.218455 +0100,
gesicht3,4,3,67,10,,,,,349.05234118923545,,,,,,,,,,349.0295820981264,349.05234118923545,351.06216282583773,352.0337796676904,3.0048594754189253,352.81414925307035,"[0, 300]",[-0.009259259259259259],[0.24351851851851852],[1],[0],[0],[0.7794548086822033],[1],['target_find'],352.8151752501726,353.8298185300082,,,,,,,,,,,,,,,,,,,,,,,,,,,,,,,,250286,001,2023-11-06_13h59.35.775,Selektive Wahrnehmung,2023.2.3,60.1388003439243,2023-11-06 14h00.48.218455 +0100,
gesicht1,4,4,68,8,,,,,353.86494533345103,,,,,,,,,,353.8305324893445,353.86494533345103,355.87881719507277,356.8449504878372,3.015210747718811,357.74605658464134,"[-300, 300]",[-0.17037037037037037],[0.22592592592592592],[1],[0],[0],[0.9005892593413591],[1],['target_find'],357.74653359875083,358.7635716293007,,,,,,,,,,,,,,,,,,,,,,,,,,,,,,,,250286,001,2023-11-06_13h59.35.775,Selektive Wahrnehmung,2023.2.3,60.1388003439243,2023-11-06 14h00.48.218455 +0100,
spinne1,4,5,69,0,,,,,358.7949986439198,,,,,,,,,,358.76448896713555,358.7949986439198,360.7955877315253,361.7671163957566,3.003710314631462,362.64730433374643,"[-300, -300]",[-0.30277777777777776],[-0.2564814814814815],[1],[0],[0],[0.8795721139758825],[1],['target_find'],362.6477841939777,363.66223490424454,,,,,,,,,,,,,,,,,,,,,,,,,,,,,,,,250286,001,2023-11-06_13h59.35.775,Selektive Wahrnehmung,2023.2.3,60.1388003439243,2023-11-06 14h00.48.218455 +0100,
auto1,4,6,70,12,,,,,363.6863892041147,,,,,,,,,,363.6625091098249,363.6863892041147,365.69563227519393,366.6633206345141,3.001278867945075,367.6473626457155,"[300, -300]",[0.2759259259259259],[-0.37037037037037035],[1],[0],[0],[0.9833835177123547],[1],['target_find'],367.64784819446504,368.66346996836364,,,,,,,,,,,,,,,,,,,,,,,,,,,,,,,,250286,001,2023-11-06_13h59.35.775,Selektive Wahrnehmung,2023.2.3,60.1388003439243,2023-11-06 14h00.48.218455 +0100,
spinne2,4,7,71,1,,,,,368.85461140982807,,,,,,,,,,368.6642951462418,368.85461140982807,370.86228775419295,371.6812663320452,3.017969874665141,372.4812396503985,"[-300, -300]",[-0.2101851851851852],[-0.24722222222222223],[1],[0],[0],[0.7991381864994764],[1],['target_find'],372.482127122581,373.49655791930854,,,,,,,,,,,,,,,,,,,,,,,,,,,,,,,,250286,001,2023-11-06_13h59.35.775,Selektive Wahrnehmung,2023.2.3,60.1388003439243,2023-11-06 14h00.48.218455 +0100,
person2,4,8,72,5,,,,,373.5350647941232,,,,,,,,,,373.497261069715,373.5350647941232,375.5456726383418,376.5007401295006,3.004422565922141,377.2644653581083,"[-300, -300]",[-0.21203703703703702],[-0.22685185185185186],[1],[0],[0],[0.7628144342452288],[1],['target_find'],377.2653579507023,378.27970824949443,,,,,,,,,,,,,,,,,,,,,,,,,,,,,,,,250286,001,2023-11-06_13h59.35.775,Selektive Wahrnehmung,2023.2.3,60.1388003439243,2023-11-06 14h00.48.218455 +0100,
schlange1,4,9,73,2,,,,,378.31579960882664,,,,,,,,,,378.2802865281701,378.31579960882664,380.32861162535846,381.28020204789937,3.0006724298000336,382.1805125493556,"[300, -300]",[0.24351851851851852],[-0.31203703703703706],[1],[0],[0],[0.8994858935475349],[1],['target_find'],382.1814196482301,383.1966531518847,,,,,,,,,,,,,,,,,,,,,,,,,,,,,,,,250286,001,2023-11-06_13h59.35.775,Selektive Wahrnehmung,2023.2.3,60.1388003439243,2023-11-06 14h00.48.218455 +0100,
gruppe1,4,10,74,6,,,,,383.2343163602054,,,,,,,,,,383.1973668280989,383.2343163602054,385.24565153196454,386.2117293588817,3.0151402056217194,386.980542473495,"[-300, 0]",[-0.20185185185185187],[-0.06944444444444445],[1],[0],[0],[0.7681517787277699],[1],['target_find'],386.98132782801986,387.9967467915267,,,,,,,,,,,,,,,,,,,,,,,,,,,,,,,,250286,001,2023-11-06_13h59.35.775,Selektive Wahrnehmung,2023.2.3,60.1388003439243,2023-11-06 14h00.48.218455 +0100,
schiff1,4,11,75,14,,,,,388.03494589589536,,,,,,,,,,387.9974744040519,388.03494589589536,390.0457244068384,391.01435143873096,3.0177883990108967,391.7487747501582,"[-300, 0]",[-0.16018518518518518],[-0.1],[1],[0],[0],[0.7332707345485687],[1],['target_find'],391.7502498868853,392.7627746127546,,,,,,,,,,,,,,,,,,,,,,,,,,,,,,,,250286,001,2023-11-06_13h59.35.775,Selektive Wahrnehmung,2023.2.3,60.1388003439243,2023-11-06 14h00.48.218455 +0100,
zug1,4,12,76,15,,,,,392.7952429819852,,,,,,,,,,392.76324423216283,392.7952429819852,394.7955268602818,395.76189539022744,2.999193312600255,396.69802674278617,"[-300, 300]",[-0.3037037037037037],[0.30648148148148147],[1],[0],[0],[0.9353622104972601],[1],['target_find'],396.6990646850318,397.71287823468447,,,,,,,,,,,,,,,,,,,,,,,,,,,,,,,,250286,001,2023-11-06_13h59.35.775,Selektive Wahrnehmung,2023.2.3,60.1388003439243,2023-11-06 14h00.48.218455 +0100,
schlange2,4,13,77,3,,,,,397.744739882648,,,,,,,,,,397.71339706517756,397.744739882648,399.74576616473496,400.71185650490224,2.9990843683481216,401.82997724972665,"[0, -300]",[-0.027777777777777776],[-0.2518518518518518],[1],[0],[0],[1.117549292743206],[1],['target_find'],401.830447724089,402.8463115617633,,,,,,,,,,,,,,,,,,,,,,,,,,,,,,,,250286,001,2023-11-06_13h59.35.775,Selektive Wahrnehmung,2023.2.3,60.1388003439243,2023-11-06 14h00.48.218455 +0100,
gruppe2,4,14,78,7,,,,,402.8808006364852,,,,,,,,,,402.8468995112926,402.8808006364852,404.8956017829478,405.8507398162037,3.00467487052083,406.8009722940624,"[300, -300]",[0.2462962962962963],[-0.3527777777777778],[1],[0],[0],[0.948750514537096],[1],['target_find'],406.8030507415533,407.81385200843215,,,,,,,,,,,,,,,,,,,,,,,,,,,,,,,,250286,001,2023-11-06_13h59.35.775,Selektive Wahrnehmung,2023.2.3,60.1388003439243,2023-11-06 14h00.48.218455 +0100,
person1,4,15,79,4,,,,,407.85244364850223,,,,,,,,,,407.81457933597267,407.85244364850223,409.8620678782463,410.83214046247303,3.0185171496123075,411.44856761582196,"[0, -300]",[0.001851851851851852],[-0.262037037037037],[1],[0],[0],[0.6156935691833496],[1],['target_find'],411.4490699470043,412.4630328323692,,,,,,,,,,,,,,,,,,,,,,,,,,,,,,,,250286,001,2023-11-06_13h59.35.775,Selektive Wahrnehmung,2023.2.3,60.1388003439243,2023-11-06 14h00.48.218455 +0100,
,,,,,0,0,0,0,420.2632007114589,,,,,,,,,,,,,,,,,,,,,,,,,,,412.48534050770104,418.5301871150732,418.5302144214511,420.2132630906999,420.2142256554216,428.60457741841674,3.0,1.0,schlange2,,,,,,,,,,,,,,,,,,,,,,,250286,001,2023-11-06_13h59.35.775,Selektive Wahrnehmung,2023.2.3,60.1388003439243,2023-11-06 14h00.48.218455 +0100,
,,,,,1,0,1,0,428.6418463848531,,,,,,,,,,,,,,,,,,,,,,,,,,,,,,,428.60525752976537,434.41907853260636,4.0,1.0,gruppe1,,,,,,,,,,,,,,,,,,,,,,,250286,001,2023-11-06_13h59.35.775,Selektive Wahrnehmung,2023.2.3,60.1388003439243,2023-11-06 14h00.48.218455 +0100,
,,,,,2,0,2,0,434.4510494079441,,,,,,,,,,,,,,,,,,,,,,,,,,,,,,,434.41948699578643,441.9968036804348,1.0,5.0,person2,,,,,,,,,,,,,,,,,,,,,,,250286,001,2023-11-06_13h59.35.775,Selektive Wahrnehmung,2023.2.3,60.1388003439243,2023-11-06 14h00.48.218455 +0100,
,,,,,3,0,3,0,442.02738589048386,,,,,,,,,,,,,,,,,,,,,,,,,,,,,,,441.997098935768,447.42998475953937,1.0,3.0,zug1,,,,,,,,,,,,,,,,,,,,,,,250286,001,2023-11-06_13h59.35.775,Selektive Wahrnehmung,2023.2.3,60.1388003439243,2023-11-06 14h00.48.218455 +0100,
,,,,,4,0,4,0,447.4620435293764,,,,,,,,,,,,,,,,,,,,,,,,,,,,,,,447.4303039088845,454.94253565371037,2.0,2.0,gesicht3,,,,,,,,,,,,,,,,,,,,,,,250286,001,2023-11-06_13h59.35.775,Selektive Wahrnehmung,2023.2.3,60.1388003439243,2023-11-06 14h00.48.218455 +0100,
,,,,,,,,,,,,,,,,,,,,,,,,,,,,,,,,,,,,,,,,,,,,,454.9474230054766,461.5318147148937,18,1.0,461.5318349096924,476.559665389359,3.0,1.0,476.55969724804163,478.9135898631066,478.9136148933321,497.8542473204434,2.0,4.0,5.0,2.0,497.85426922142506,507.9557848647237,3.0,4.0,507.9558039214462,510.5642000269145,,,,,,,,
