Target,trials.thisRepN,trials.thisTrialN,trials.thisN,trials.thisIndex,trials_2.thisRepN,trials_2.thisTrialN,trials_2.thisN,trials_2.thisIndex,thisRow.t,notes,Data_transparency.started,key_resp_data_transp.started,Data_transparency.stopped,key_resp_data_transp.keys,key_resp_data_transp.rt,key_resp_data_transp.duration,instructions.started,instructions.stopped,trial.started,target_show.started,target_show.stopped,target_find.started,mouse.started,trial.stopped,target_position_x_y,mouse.x,mouse.y,mouse.leftButton,mouse.midButton,mouse.rightButton,mouse.time,mouse.corr,mouse.clicked_name,feedback.started,feedback.stopped,instructions_survey.started,instructions_survey.stopped,instructions_ratings.started,instructions_ratings.stopped,survey_ratings.started,survey_ratings.stopped,furcht.response,liebenswert.response,rated_image,survey_gen.started,survey_gen.stopped,age.text,gender.response,survey_games.started,survey_games.stopped,pc_frequency.response,reaction_games_frequency.response,instructions_neuro.started,instructions_neuro.stopped,survey_neuro.started,survey_neuro.stopped,neuro_1_rev.response,neuro_2.response,neuro_3.response,neuro_4_rev.response,survey_fear.started,survey_fear.stopped,specific_fear_spider.response,specific_fear_snake.response,thanks.started,thanks.stopped,participant,session,date,expName,psychopyVersion,frameRate,expStart,
,,,,,,,,,,,0.020612699910998344,0.0354216992855072,19.28637900017202,z,19.24730939976871,None,,,,,,,,,,,,,,,,,,,,,,,,,,,,,,,,,,,,,,,,,,,,,,,,,,,264035,001,2023-11-06_13h05.29.117,Selektive Wahrnehmung,2023.2.3,60.02112737411429,2023-11-06 13h06.27.910009 +0100,
,,,,,,,,,,,,,,,,,19.28644989989698,34.584654899314046,,,,,,,,,,,,,,,,,,,,,,,,,,,,,,,,,,,,,,,,,,,,,,,,,264035,001,2023-11-06_13h05.29.117,Selektive Wahrnehmung,2023.2.3,60.02112737411429,2023-11-06 13h06.27.910009 +0100,
gesicht1,0,0,0,8,,,,,34.70072939991951,,,,,,,,,,34.5920802988112,34.70072939991951,36.700571900233626,37.600546699017286,3.0160455014556646,38.66965759918094,"[-300, 300]",[-0.23055555555555557],[0.25462962962962965],[1],[0],[0],[1.0682882014662027],[1],['target_find'],38.67157579958439,39.68507589958608,,,,,,,,,,,,,,,,,,,,,,,,,,,,,,,,264035,001,2023-11-06_13h05.29.117,Selektive Wahrnehmung,2023.2.3,60.02112737411429,2023-11-06 13h06.27.910009 +0100,
spinne1,0,1,1,0,,,,,39.73390149883926,,,,,,,,,,39.68586160056293,39.73390149883926,41.73391759954393,42.73374509997666,3.0487379003316164,45.13530020043254,"[300, -300]",[0.24351851851851852],[-0.26851851851851855],[1],[0],[0],[2.400994300842285],[1],['target_find'],45.13584000058472,46.15083030052483,,,,,,,,,,,,,,,,,,,,,,,,,,,,,,,,264035,001,2023-11-06_13h05.29.117,Selektive Wahrnehmung,2023.2.3,60.02112737411429,2023-11-06 13h06.27.910009 +0100,
gesicht2,0,2,2,9,,,,,46.20000319927931,,,,,,,,,,46.15111199952662,46.20000319927931,48.200124599039555,49.16695920005441,3.016218900680542,50.11925099976361,"[0, 300]",[0.058333333333333334],[0.1962962962962963],[1],[0],[0],[0.9516136012971401],[1],['target_find'],50.120120299980044,51.13422649912536,,,,,,,,,,,,,,,,,,,,,,,,,,,,,,,,264035,001,2023-11-06_13h05.29.117,Selektive Wahrnehmung,2023.2.3,60.02112737411429,2023-11-06 13h06.27.910009 +0100,
flugzeug1,0,3,3,13,,,,,51.16667930036783,,,,,,,,,,51.13471579924226,51.16667930036783,53.16656949929893,54.16691649891436,3.033000100404024,55.08652859926224,"[0, 300]",[0.03518518518518519],[0.21388888888888888],[1],[0],[0],[0.9187895003706217],[1],['target_find'],55.087072199210525,56.10078129917383,,,,,,,,,,,,,,,,,,,,,,,,,,,,,,,,264035,001,2023-11-06_13h05.29.117,Selektive Wahrnehmung,2023.2.3,60.02112737411429,2023-11-06 13h06.27.910009 +0100,
person2,0,4,4,5,,,,,56.14984989911318,,,,,,,,,,56.10137999989092,56.14984989911318,58.14967739954591,59.14964379929006,3.048963600769639,60.26924579963088,"[0, -300]",[0.044444444444444446],[-0.21203703703703702],[1],[0],[0],[1.1187654994428158],[1],['target_find'],60.27044709958136,61.284119199961424,,,,,,,,,,,,,,,,,,,,,,,,,,,,,,,,264035,001,2023-11-06_13h05.29.117,Selektive Wahrnehmung,2023.2.3,60.02112737411429,2023-11-06 13h06.27.910009 +0100,
gruppe2,0,5,5,7,,,,,61.3164045996964,,,,,,,,,,61.2847137991339,61.3164045996964,63.31643459945917,64.31639060005546,3.0325499009341,65.93588979914784,"[300, 300]",[0.26944444444444443],[0.20462962962962963],[1],[0],[0],[1.6184294000267982],[1],['target_find'],65.93707749992609,66.95028759911656,,,,,,,,,,,,,,,,,,,,,,,,,,,,,,,,264035,001,2023-11-06_13h05.29.117,Selektive Wahrnehmung,2023.2.3,60.02112737411429,2023-11-06 13h06.27.910009 +0100,
zug1,0,6,6,15,,,,,66.9828635994345,,,,,,,,,,66.95079210028052,66.9828635994345,68.98282730020583,69.98293229937553,3.032970901578665,71.019894098863,"[-300, 300]",[-0.19814814814814816],[0.2388888888888889],[1],[0],[0],[1.0355797000229359],[1],['target_find'],71.02134330011904,72.0333711002022,,,,,,,,,,,,,,,,,,,,,,,,,,,,,,,,264035,001,2023-11-06_13h05.29.117,Selektive Wahrnehmung,2023.2.3,60.02112737411429,2023-11-06 13h06.27.910009 +0100,
person1,0,7,7,4,,,,,72.06608919985592,,,,,,,,,,72.03387250006199,72.06608919985592,74.06596579961479,75.04940939880908,3.016330098733306,76.2679701987654,"[300, 300]",[0.2611111111111111],[0.2388888888888889],[1],[0],[0],[1.2175352983176708],[1],['target_find'],76.26889859884977,77.28320430032909,,,,,,,,,,,,,,,,,,,,,,,,,,,,,,,,264035,001,2023-11-06_13h05.29.117,Selektive Wahrnehmung,2023.2.3,60.02112737411429,2023-11-06 13h06.27.910009 +0100,
spinne2,0,8,8,1,,,,,77.46565520018339,,,,,,,,,,77.28371619991958,77.46565520018339,79.46586589887738,80.31572210043669,3.032600101083517,82.58494560047984,"[300, 300]",[0.23055555555555557],[0.20277777777777778],[1],[0],[0],[2.2683984991163015],[1],['target_find'],82.58627790026367,83.59958530031145,,,,,,,,,,,,,,,,,,,,,,,,,,,,,,,,264035,001,2023-11-06_13h05.29.117,Selektive Wahrnehmung,2023.2.3,60.02112737411429,2023-11-06 13h06.27.910009 +0100,
schlange1,0,9,9,2,,,,,83.66567729972303,,,,,,,,,,83.60003889910877,83.66567729972303,85.66552140004933,86.63221419975162,3.0327230002731085,87.9168133996427,"[0, -300]",[0.046296296296296294],[-0.30648148148148147],[1],[0],[0],[1.2839992009103298],[1],['target_find'],87.91736359894276,88.93287199921906,,,,,,,,,,,,,,,,,,,,,,,,,,,,,,,,264035,001,2023-11-06_13h05.29.117,Selektive Wahrnehmung,2023.2.3,60.02112737411429,2023-11-06 13h06.27.910009 +0100,
gesicht3,0,10,10,10,,,,,88.96540649980307,,,,,,,,,,88.93341669999063,88.96540649980307,90.96527249924839,91.9654128998518,3.0326202996075153,92.90109040029347,"[300, 0]",[0.3509259259259259],[-0.062037037037037036],[1],[0],[0],[0.9349518995732069],[1],['target_find'],92.90209450013936,93.9161251988262,,,,,,,,,,,,,,,,,,,,,,,,,,,,,,,,264035,001,2023-11-06_13h05.29.117,Selektive Wahrnehmung,2023.2.3,60.02112737411429,2023-11-06 13h06.27.910009 +0100,
gruppe1,0,11,11,6,,,,,93.94862739928067,,,,,,,,,,93.9166959989816,93.94862739928067,95.94856769964099,96.96482180058956,2.9991470016539097,97.98482129909098,"[-300, 300]",[-0.2074074074074074],[0.24722222222222223],[1],[0],[0],[1.0683273989707232],[1],['target_find'],97.98601329885423,98.99904809892178,,,,,,,,,,,,,,,,,,,,,,,,,,,,,,,,264035,001,2023-11-06_13h05.29.117,Selektive Wahrnehmung,2023.2.3,60.02112737411429,2023-11-06 13h06.27.910009 +0100,
gesicht4,0,12,12,11,,,,,99.03158129937947,,,,,,,,,,98.999455999583,99.03158129937947,101.03169479966164,102.03147989884019,3.0325185004621744,102.85103240050375,"[-300, 0]",[-0.20185185185185187],[-0.030555555555555555],[1],[0],[0],[0.8186284992843866],[1],['target_find'],102.85226649977267,103.86601699888706,,,,,,,,,,,,,,,,,,,,,,,,,,,,,,,,264035,001,2023-11-06_13h05.29.117,Selektive Wahrnehmung,2023.2.3,60.02112737411429,2023-11-06 13h06.27.910009 +0100,
schlange2,0,13,13,3,,,,,103.91462719999254,,,,,,,,,,103.86683239974082,103.91462719999254,105.91481439955533,106.91490699909627,3.0491554010659456,108.25091349892318,"[-300, 300]",[-0.18055555555555555],[0.18425925925925926],[1],[0],[0],[1.3349431995302439],[1],['target_find'],108.25212560035288,109.26552600041032,,,,,,,,,,,,,,,,,,,,,,,,,,,,,,,,264035,001,2023-11-06_13h05.29.117,Selektive Wahrnehmung,2023.2.3,60.02112737411429,2023-11-06 13h06.27.910009 +0100,
schiff1,0,14,14,14,,,,,109.29796420037746,,,,,,,,,,109.26613800041378,109.29796420037746,111.29793090000749,112.31433830037713,2.9990046992897987,114.76829659938812,"[300, 0]",[0.2490740740740741],[-0.06481481481481481],[1],[0],[0],[2.5024421010166407],[1],['target_find'],114.76963170059025,115.78205289877951,,,,,,,,,,,,,,,,,,,,,,,,,,,,,,,,264035,001,2023-11-06_13h05.29.117,Selektive Wahrnehmung,2023.2.3,60.02112737411429,2023-11-06 13h06.27.910009 +0100,
auto1,0,15,15,12,,,,,115.81453279964626,,,,,,,,,,115.78264859877527,115.81453279964626,117.81436610035598,118.81435889936984,3.0325720012187958,119.58255410008132,"[0, 300]",[0.01574074074074074],[0.2],[1],[0],[0],[0.7674236986786127],[1],['target_find'],119.5830450002104,120.59814899973571,,,,,,,,,,,,,,,,,,,,,,,,,,,,,,,,264035,001,2023-11-06_13h05.29.117,Selektive Wahrnehmung,2023.2.3,60.02112737411429,2023-11-06 13h06.27.910009 +0100,
schlange2,1,0,16,3,,,,,120.63103099912405,,,,,,,,,,120.59858679957688,120.63103099912405,122.63081139884889,123.63057589903474,3.032507700845599,125.76782899908721,"[-300, -300]",[-0.17037037037037037],[-0.26851851851851855],[1],[0],[0],[2.1364067997783422],[1],['target_find'],125.76908070035279,126.78130120038986,,,,,,,,,,,,,,,,,,,,,,,,,,,,,,,,264035,001,2023-11-06_13h05.29.117,Selektive Wahrnehmung,2023.2.3,60.02112737411429,2023-11-06 13h06.27.910009 +0100,
auto1,1,1,17,12,,,,,126.81384870037436,,,,,,,,,,126.78180819936097,126.81384870037436,128.81405849941075,129.81395789980888,3.032735301181674,131.5339164994657,"[300, -300]",[0.2824074074074074],[-0.2324074074074074],[1],[0],[0],[1.7194769997149706],[1],['target_find'],131.5344571005553,132.54776169918478,,,,,,,,,,,,,,,,,,,,,,,,,,,,,,,,264035,001,2023-11-06_13h05.29.117,Selektive Wahrnehmung,2023.2.3,60.02112737411429,2023-11-06 13h06.27.910009 +0100,
person1,1,2,18,4,,,,,132.58045269921422,,,,,,,,,,132.54822289943695,132.58045269921422,134.58035679906607,135.58044680021703,3.032769199460745,136.53293049894273,"[300, 300]",[0.28425925925925927],[0.22592592592592592],[1],[0],[0],[0.9517721012234688],[1],['target_find'],136.53391999937594,137.54793329909444,,,,,,,,,,,,,,,,,,,,,,,,,,,,,,,,264035,001,2023-11-06_13h05.29.117,Selektive Wahrnehmung,2023.2.3,60.02112737411429,2023-11-06 13h06.27.910009 +0100,
spinne2,1,3,19,1,,,,,137.74681030027568,,,,,,,,,,137.54856180027127,137.74681030027568,139.74686929956079,140.5968363005668,3.048970300704241,141.43162269890308,"[-300, 0]",[-0.18425925925925926],[-0.020370370370370372],[1],[0],[0],[0.8342420998960733],[1],['target_find'],141.4322047997266,142.44748109951615,,,,,,,,,,,,,,,,,,,,,,,,,,,,,,,,264035,001,2023-11-06_13h05.29.117,Selektive Wahrnehmung,2023.2.3,60.02112737411429,2023-11-06 13h06.27.910009 +0100,
flugzeug1,1,4,20,13,,,,,142.51348399929702,,,,,,,,,,142.4479872994125,142.51348399929702,144.5133426003158,145.49660930037498,2.999227400869131,146.2995948996395,"[0, 300]",[0.10648148148148148],[0.2638888888888889],[1],[0],[0],[0.851723799481988],[1],['target_find'],146.30103399977088,147.3141326997429,,,,,,,,,,,,,,,,,,,,,,,,,,,,,,,,264035,001,2023-11-06_13h05.29.117,Selektive Wahrnehmung,2023.2.3,60.02112737411429,2023-11-06 13h06.27.910009 +0100,
spinne1,1,5,21,0,,,,,147.34625829942524,,,,,,,,,,147.31475079990923,147.34625829942524,149.34610399976373,150.3295144997537,3.0154860001057386,151.13103449903429,"[0, 300]",[0.020370370370370372],[0.28703703703703703],[1],[0],[0],[0.8009465001523495],[1],['target_find'],151.13156940042973,152.14676260016859,,,,,,,,,,,,,,,,,,,,,,,,,,,,,,,,264035,001,2023-11-06_13h05.29.117,Selektive Wahrnehmung,2023.2.3,60.02112737411429,2023-11-06 13h06.27.910009 +0100,
gesicht3,1,6,22,10,,,,,152.17986789904535,,,,,,,,,,152.14716219902039,152.17986789904535,154.17965509928763,155.16281460039318,3.0161211993545294,156.1324151996523,"[300, 0]",[0.21296296296296297],[0.007407407407407408],[1],[0],[0],[0.9688338004052639],[1],['target_find'],156.13359209895134,157.14726720005274,,,,,,,,,,,,,,,,,,,,,,,,,,,,,,,,264035,001,2023-11-06_13h05.29.117,Selektive Wahrnehmung,2023.2.3,60.02112737411429,2023-11-06 13h06.27.910009 +0100,
gesicht2,1,7,23,9,,,,,157.19626829959452,,,,,,,,,,157.14785949885845,157.19626829959452,159.19615099951625,160.1961131989956,2.999066399410367,160.8973890002817,"[300, 300]",[0.25092592592592594],[0.2101851851851852],[1],[0],[0],[0.7500046994537115],[1],['target_find'],160.897948699072,161.91383669897914,,,,,,,,,,,,,,,,,,,,,,,,,,,,,,,,264035,001,2023-11-06_13h05.29.117,Selektive Wahrnehmung,2023.2.3,60.02112737411429,2023-11-06 13h06.27.910009 +0100,
gesicht4,1,8,24,11,,,,,161.9625483993441,,,,,,,,,,161.9145998004824,161.9625483993441,163.96228490024805,164.94595840014517,3.032193699851632,165.54882179945707,"[0, 300]",[0.01574074074074074],[0.26944444444444443],[1],[0],[0],[0.6020568013191223],[1],['target_find'],165.5499981995672,166.56349019892514,,,,,,,,,,,,,,,,,,,,,,,,,,,,,,,,264035,001,2023-11-06_13h05.29.117,Selektive Wahrnehmung,2023.2.3,60.02112737411429,2023-11-06 13h06.27.910009 +0100,
zug1,1,9,25,15,,,,,166.61252889968455,,,,,,,,,,166.5641318988055,166.61252889968455,168.61252260021865,169.6125408988446,2.9991467986255884,170.16632509976625,"[-300, 300]",[-0.42777777777777776],[0.4009259259259259],[1],[0],[0],[0.6022961996495724],[],[],170.16771990060806,171.18001679889858,,,,,,,,,,,,,,,,,,,,,,,,,,,,,,,,264035,001,2023-11-06_13h05.29.117,Selektive Wahrnehmung,2023.2.3,60.02112737411429,2023-11-06 13h06.27.910009 +0100,
schlange1,1,10,26,2,,,,,171.22900979965925,,,,,,,,,,171.18063599988818,171.22900979965925,173.22880659997463,174.22878469899297,2.999092899262905,174.96608990058303,"[0, 300]",[0.001851851851851852],[0.2222222222222222],[1],[0],[0],[0.7846668008714914],[1],['target_find'],174.96730300039053,175.97949989885092,,,,,,,,,,,,,,,,,,,,,,,,,,,,,,,,264035,001,2023-11-06_13h05.29.117,Selektive Wahrnehmung,2023.2.3,60.02112737411429,2023-11-06 13h06.27.910009 +0100,
gruppe1,1,11,27,6,,,,,176.01220070011914,,,,,,,,,,175.97998549975455,176.01220070011914,178.0121478997171,178.9952505994588,3.015819599851966,179.59776050038636,"[-300, 300]",[-0.21574074074074073],[0.22407407407407406],[1],[0],[0],[0.6017007008194923],[1],['target_find'],179.59908260032535,180.61306629888713,,,,,,,,,,,,,,,,,,,,,,,,,,,,,,,,264035,001,2023-11-06_13h05.29.117,Selektive Wahrnehmung,2023.2.3,60.02112737411429,2023-11-06 13h06.27.910009 +0100,
person2,1,12,28,5,,,,,180.6619284003973,,,,,,,,,,180.61378449946642,180.6619284003973,182.66186359897256,183.64541780017316,2.999074598774314,184.69960010051727,"[300, -300]",[0.24722222222222223],[-0.21388888888888888],[1],[0],[0],[1.0857046004384756],[1],['target_find'],184.70175489969552,185.7126043997705,,,,,,,,,,,,,,,,,,,,,,,,,,,,,,,,264035,001,2023-11-06_13h05.29.117,Selektive Wahrnehmung,2023.2.3,60.02112737411429,2023-11-06 13h06.27.910009 +0100,
gruppe2,1,13,29,7,,,,,185.76176239922643,,,,,,,,,,185.71315659955144,185.76176239922643,187.76171519979835,188.76197339966893,3.049651900306344,189.91289759986103,"[0, -300]",[-0.017592592592592594],[-0.21296296296296297],[1],[0],[0],[1.150102699175477],[1],['target_find'],189.91344869881868,190.92897319979966,,,,,,,,,,,,,,,,,,,,,,,,,,,,,,,,264035,001,2023-11-06_13h05.29.117,Selektive Wahrnehmung,2023.2.3,60.02112737411429,2023-11-06 13h06.27.910009 +0100,
gesicht1,1,14,30,8,,,,,190.96175879985094,,,,,,,,,,190.9294547997415,190.96175879985094,192.9615125004202,193.9450070988387,3.016117200255394,194.79809620045125,"[0, 300]",[-0.008333333333333333],[0.2351851851851852],[1],[0],[0],[0.8522865008562803],[1],['target_find'],194.79926919937134,195.81255020014942,,,,,,,,,,,,,,,,,,,,,,,,,,,,,,,,264035,001,2023-11-06_13h05.29.117,Selektive Wahrnehmung,2023.2.3,60.02112737411429,2023-11-06 13h06.27.910009 +0100,
schiff1,1,15,31,14,,,,,195.86142279952765,,,,,,,,,,195.81330890022218,195.86142279952765,197.8613460995257,198.861447699368,3.0490036997944117,199.72921769879758,"[0, 300]",[-0.013888888888888888],[0.2388888888888889],[1],[0],[0],[0.8672234993427992],[1],['target_find'],199.72975230030715,200.74540480040014,,,,,,,,,,,,,,,,,,,,,,,,,,,,,,,,264035,001,2023-11-06_13h05.29.117,Selektive Wahrnehmung,2023.2.3,60.02112737411429,2023-11-06 13h06.27.910009 +0100,
schlange2,2,0,32,3,,,,,200.7778163999319,,,,,,,,,,200.74584909901023,200.7778163999319,202.77781819924712,203.76127399876714,3.0159530993551016,205.7139724995941,"[300, 300]",[0.30185185185185187],[0.2175925925925926],[1],[0],[0],[1.951834000647068],[1],['target_find'],205.71508339978755,206.72842149995267,,,,,,,,,,,,,,,,,,,,,,,,,,,,,,,,264035,001,2023-11-06_13h05.29.117,Selektive Wahrnehmung,2023.2.3,60.02112737411429,2023-11-06 13h06.27.910009 +0100,
flugzeug1,2,1,33,13,,,,,206.77756780013442,,,,,,,,,,206.72892089933157,206.77756780013442,208.77766919881105,209.76087410002947,3.032532200217247,210.9287832994014,"[0, -300]",[-0.007407407407407408],[-0.24814814814814815],[1],[0],[0],[1.1673949006944895],[1],['target_find'],210.92933419905603,211.9450270999223,,,,,,,,,,,,,,,,,,,,,,,,,,,,,,,,264035,001,2023-11-06_13h05.29.117,Selektive Wahrnehmung,2023.2.3,60.02112737411429,2023-11-06 13h06.27.910009 +0100,
person2,2,2,34,5,,,,,211.97775080054998,,,,,,,,,,211.94554390013218,211.97775080054998,213.97757349908352,214.97751300036907,3.0327668003737926,215.9969925004989,"[0, -300]",[0.03518518518518519],[-0.26666666666666666],[1],[0],[0],[1.0183940008282661],[1],['target_find'],215.9980691988021,217.01163630001247,,,,,,,,,,,,,,,,,,,,,,,,,,,,,,,,264035,001,2023-11-06_13h05.29.117,Selektive Wahrnehmung,2023.2.3,60.02112737411429,2023-11-06 13h06.27.910009 +0100,
gruppe2,2,3,35,7,,,,,217.06066619977355,,,,,,,,,,217.0122820995748,217.06066619977355,219.06051320023835,220.04379599913955,3.032236000522971,221.24743499979377,"[0, 300]",[0.03611111111111111],[0.21296296296296297],[1],[0],[0],[1.2026783991605043],[1],['target_find'],221.24886959977448,222.2614470999688,,,,,,,,,,,,,,,,,,,,,,,,,,,,,,,,264035,001,2023-11-06_13h05.29.117,Selektive Wahrnehmung,2023.2.3,60.02112737411429,2023-11-06 13h06.27.910009 +0100,
person1,2,4,36,4,,,,,222.3104938995093,,,,,,,,,,222.2620000001043,222.3104938995093,224.31025459989905,225.32718019932508,2.99905770085752,226.445178700611,"[300, 0]",[0.2212962962962963],[-0.058333333333333334],[1],[0],[0],[1.1836418993771076],[1],['target_find'],226.44570899941027,227.4611760005355,,,,,,,,,,,,,,,,,,,,,,,,,,,,,,,,264035,001,2023-11-06_13h05.29.117,Selektive Wahrnehmung,2023.2.3,60.02112737411429,2023-11-06 13h06.27.910009 +0100,
auto1,2,5,37,12,,,,,227.51043199934065,,,,,,,,,,227.4617566987872,227.51043199934065,229.5103543996811,230.49368659965694,2.999005798250437,231.3282332997769,"[-300, 300]",[-0.2518518518518518],[0.2740740740740741],[1],[0],[0],[0.8672099001705647],[1],['target_find'],231.32881399989128,232.3440186996013,,,,,,,,,,,,,,,,,,,,,,,,,,,,,,,,264035,001,2023-11-06_13h05.29.117,Selektive Wahrnehmung,2023.2.3,60.02112737411429,2023-11-06 13h06.27.910009 +0100,
gruppe1,2,6,38,6,,,,,232.37664549984038,,,,,,,,,,232.3444344997406,232.37664549984038,234.37669299915433,235.35972259938717,3.0157655011862516,236.54739120043814,"[300, -300]",[0.2064814814814815],[-0.275],[1],[0],[0],[1.18674479983747],[1],['target_find'],236.54883860051632,237.5609021987766,,,,,,,,,,,,,,,,,,,,,,,,,,,,,,,,264035,001,2023-11-06_13h05.29.117,Selektive Wahrnehmung,2023.2.3,60.02112737411429,2023-11-06 13h06.27.910009 +0100,
schlange1,2,7,39,2,,,,,237.60982039943337,,,,,,,,,,237.5614975988865,237.60982039943337,239.60983370058239,240.59290160052478,3.032048599794507,241.99511869996786,"[300, -300]",[0.2],[-0.2833333333333333],[1],[0],[0],[1.4015344008803368],[1],['target_find'],241.9960436988622,243.01029459945858,,,,,,,,,,,,,,,,,,,,,,,,,,,,,,,,264035,001,2023-11-06_13h05.29.117,Selektive Wahrnehmung,2023.2.3,60.02112737411429,2023-11-06 13h06.27.910009 +0100,
gesicht1,2,8,40,8,,,,,243.04326719976962,,,,,,,,,,243.01071560010314,243.04326719976962,245.04278589971364,246.0431446991861,3.032941199839115,247.8285917993635,"[-300, 0]",[-0.23333333333333334],[0.03425925925925926],[1],[0],[0],[1.7846191991120577],[1],['target_find'],247.82977589964867,248.84289459884167,,,,,,,,,,,,,,,,,,,,,,,,,,,,,,,,264035,001,2023-11-06_13h05.29.117,Selektive Wahrnehmung,2023.2.3,60.02112737411429,2023-11-06 13h06.27.910009 +0100,
gesicht3,2,9,41,10,,,,,248.87584989890456,,,,,,,,,,248.84313399903476,248.87584989890456,250.8760831989348,251.85929369926453,3.0164689999073744,252.66226870007813,"[0, -300]",[0.028703703703703703],[-0.24074074074074073],[1],[0],[0],[0.8021990992128849],[1],['target_find'],252.66344209946692,253.67706969939172,,,,,,,,,,,,,,,,,,,,,,,,,,,,,,,,264035,001,2023-11-06_13h05.29.117,Selektive Wahrnehmung,2023.2.3,60.02112737411429,2023-11-06 13h06.27.910009 +0100,
spinne1,2,10,42,0,,,,,253.72574819996953,,,,,,,,,,253.67785480059683,253.72574819996953,255.7258550990373,256.7089997995645,3.0319787990301847,257.5770398005843,"[0, 300]",[0.0],[0.2324074074074074],[1],[0],[0],[0.8675657007843256],[1],['target_find'],257.57758119888604,258.59326680004597,,,,,,,,,,,,,,,,,,,,,,,,,,,,,,,,264035,001,2023-11-06_13h05.29.117,Selektive Wahrnehmung,2023.2.3,60.02112737411429,2023-11-06 13h06.27.910009 +0100,
zug1,2,11,43,15,,,,,258.62575780041516,,,,,,,,,,258.59379549883306,258.62575780041516,260.6257082987577,261.60880119912326,3.0155947003513575,262.8625507000834,"[-300, 0]",[-0.17222222222222222],[-0.058333333333333334],[1],[0],[0],[1.2532573007047176],[1],['target_find'],262.86308540031314,263.87654710002244,,,,,,,,,,,,,,,,,,,,,,,,,,,,,,,,264035,001,2023-11-06_13h05.29.117,Selektive Wahrnehmung,2023.2.3,60.02112737411429,2023-11-06 13h06.27.910009 +0100,
spinne2,2,12,44,1,,,,,264.0590145997703,,,,,,,,,,263.8771211002022,264.0590145997703,266.0588557999581,266.9257640000433,2.999106900766492,268.0766821987927,"[300, 300]",[0.24722222222222223],[0.21388888888888888],[1],[0],[0],[1.200152600184083],[1],['target_find'],268.0772488992661,269.0929188001901,,,,,,,,,,,,,,,,,,,,,,,,,,,,,,,,264035,001,2023-11-06_13h05.29.117,Selektive Wahrnehmung,2023.2.3,60.02112737411429,2023-11-06 13h06.27.910009 +0100,
gesicht2,2,13,45,9,,,,,269.1589042004198,,,,,,,,,,269.0934509001672,269.1589042004198,271.15883390046656,272.14203340001404,3.049202099442482,272.79492309875786,"[0, 300]",[-0.022222222222222223],[0.18518518518518517],[1],[0],[0],[0.6520530004054308],[1],['target_find'],272.7960199005902,273.8097015004605,,,,,,,,,,,,,,,,,,,,,,,,,,,,,,,,264035,001,2023-11-06_13h05.29.117,Selektive Wahrnehmung,2023.2.3,60.02112737411429,2023-11-06 13h06.27.910009 +0100,
schiff1,2,14,46,14,,,,,273.85850680060685,,,,,,,,,,273.81046059913933,273.85850680060685,275.8584794998169,276.8585250005126,3.0489082001149654,278.2947693988681,"[-300, -300]",[-0.21851851851851853],[-0.22037037037037038],[1],[0],[0],[1.4357475005090237],[1],['target_find'],278.2953034006059,279.3091403990984,,,,,,,,,,,,,,,,,,,,,,,,,,,,,,,,264035,001,2023-11-06_13h05.29.117,Selektive Wahrnehmung,2023.2.3,60.02112737411429,2023-11-06 13h06.27.910009 +0100,
gesicht4,2,15,47,11,,,,,279.3414497990161,,,,,,,,,,279.309647500515,279.3414497990161,281.34130739979446,282.3248059004545,3.015725899487734,283.09483129903674,"[300, 0]",[0.22870370370370371],[-0.07037037037037037],[1],[0],[0],[0.7695984002202749],[1],['target_find'],283.09536460042,284.10916700027883,,,,,,,,,,,,,,,,,,,,,,,,,,,,,,,,264035,001,2023-11-06_13h05.29.117,Selektive Wahrnehmung,2023.2.3,60.02112737411429,2023-11-06 13h06.27.910009 +0100,
auto1,3,0,48,12,,,,,284.1580235995352,,,,,,,,,,284.1097397990525,284.1580235995352,286.15821089968085,287.1580908000469,3.049006100744009,288.0608395989984,"[300, -300]",[0.2212962962962963],[-0.24537037037037038],[1],[0],[0],[0.9019769001752138],[1],['target_find'],288.0620089005679,289.07530670054257,,,,,,,,,,,,,,,,,,,,,,,,,,,,,,,,264035,001,2023-11-06_13h05.29.117,Selektive Wahrnehmung,2023.2.3,60.02112737411429,2023-11-06 13h06.27.910009 +0100,
gesicht4,3,1,49,11,,,,,289.1079187989235,,,,,,,,,,289.0757432989776,289.1079187989235,291.10808789916337,292.10805729962885,3.0328436009585857,292.9602784998715,"[300, -300]",[0.2740740740740741],[-0.2111111111111111],[1],[0],[0],[0.8514561001211405],[1],['target_find'],292.9612709991634,293.9753549993038,,,,,,,,,,,,,,,,,,,,,,,,,,,,,,,,264035,001,2023-11-06_13h05.29.117,Selektive Wahrnehmung,2023.2.3,60.02112737411429,2023-11-06 13h06.27.910009 +0100,
schlange1,3,2,50,2,,,,,294.0080773998052,,,,,,,,,,293.9758500996977,294.0080773998052,296.00778649933636,297.00798740051687,3.0329535007476807,298.2766910996288,"[300, -300]",[0.2722222222222222],[-0.275],[1],[0],[0],[1.2675841990858316],[1],['target_find'],298.27788089960814,299.2918138001114,,,,,,,,,,,,,,,,,,,,,,,,,,,,,,,,264035,001,2023-11-06_13h05.29.117,Selektive Wahrnehmung,2023.2.3,60.02112737411429,2023-11-06 13h06.27.910009 +0100,
gruppe1,3,3,51,6,,,,,299.34063749946654,,,,,,,,,,299.29238899983466,299.34063749946654,301.34056689962745,302.32436019927263,3.0326361004263163,303.4618341997266,"[300, 300]",[0.25555555555555554],[0.25092592592592594],[1],[0],[0],[1.1362631991505623],[1],['target_find'],303.4638358987868,304.4748913999647,,,,,,,,,,,,,,,,,,,,,,,,,,,,,,,,264035,001,2023-11-06_13h05.29.117,Selektive Wahrnehmung,2023.2.3,60.02112737411429,2023-11-06 13h06.27.910009 +0100,
gesicht1,3,4,52,8,,,,,304.5072914995253,,,,,,,,,,304.4753904994577,304.5072914995253,306.50733649916947,307.50733359903097,3.032533999532461,308.20863409899175,"[300, 300]",[0.27037037037037037],[0.25277777777777777],[1],[0],[0],[0.700746500864625],[1],['target_find'],308.2091795988381,309.2247673999518,,,,,,,,,,,,,,,,,,,,,,,,,,,,,,,,264035,001,2023-11-06_13h05.29.117,Selektive Wahrnehmung,2023.2.3,60.02112737411429,2023-11-06 13h06.27.910009 +0100,
person1,3,5,53,4,,,,,309.27395639941096,,,,,,,,,,309.22537560015917,309.27395639941096,311.27386309951544,312.2738747000694,3.0491802990436554,313.05953089892864,"[300, 0]",[0.24814814814814815],[0.028703703703703703],[1],[0],[0],[0.7848124001175165],[1],['target_find'],313.0606270004064,314.0746726002544,,,,,,,,,,,,,,,,,,,,,,,,,,,,,,,,264035,001,2023-11-06_13h05.29.117,Selektive Wahrnehmung,2023.2.3,60.02112737411429,2023-11-06 13h06.27.910009 +0100,
zug1,3,6,54,15,,,,,314.1238249000162,,,,,,,,,,314.07518419995904,314.1238249000162,316.12359079904854,317.1072128992528,3.0326205007731915,318.2426813002676,"[-300, 300]",[-0.21481481481481482],[0.22870370370370371],[1],[0],[0],[1.134671600535512],[1],['target_find'],318.2438043989241,319.2579378001392,,,,,,,,,,,,,,,,,,,,,,,,,,,,,,,,264035,001,2023-11-06_13h05.29.117,Selektive Wahrnehmung,2023.2.3,60.02112737411429,2023-11-06 13h06.27.910009 +0100,
spinne2,3,7,55,1,,,,,319.4569701999426,,,,,,,,,,319.25857440009713,319.4569701999426,321.4566970989108,322.3069749996066,3.049125000834465,323.5911359991878,"[0, -300]",[0.022222222222222223],[-0.2574074074074074],[1],[0],[0],[1.283662099391222],[1],['target_find'],323.5916221998632,324.607565600425,,,,,,,,,,,,,,,,,,,,,,,,,,,,,,,,264035,001,2023-11-06_13h05.29.117,Selektive Wahrnehmung,2023.2.3,60.02112737411429,2023-11-06 13h06.27.910009 +0100,
gesicht3,3,8,56,10,,,,,324.6564226001501,,,,,,,,,,324.60808439925313,324.6564226001501,326.6567193996161,327.6566640995443,2.9991798009723425,328.4925359003246,"[-300, -300]",[-0.19907407407407407],[-0.225],[1],[0],[0],[0.8847374003380537],[1],['target_find'],328.4937398005277,329.5075292997062,,,,,,,,,,,,,,,,,,,,,,,,,,,,,,,,264035,001,2023-11-06_13h05.29.117,Selektive Wahrnehmung,2023.2.3,60.02112737411429,2023-11-06 13h06.27.910009 +0100,
flugzeug1,3,9,57,13,,,,,329.55655810050666,,,,,,,,,,329.5081184003502,329.55655810050666,331.5565696004778,332.53972009941936,3.0322666000574827,333.79265630058944,"[0, -300]",[-0.017592592592592594],[-0.28425925925925927],[1],[0],[0],[1.2521528992801905],[1],['target_find'],333.7938311994076,334.8073012996465,,,,,,,,,,,,,,,,,,,,,,,,,,,,,,,,264035,001,2023-11-06_13h05.29.117,Selektive Wahrnehmung,2023.2.3,60.02112737411429,2023-11-06 13h06.27.910009 +0100,
schlange2,3,10,58,3,,,,,334.8397924005985,,,,,,,,,,334.8079741001129,334.8397924005985,336.8395066987723,337.8393083997071,2.9991145990788937,339.80927130021155,"[300, -300]",[0.2564814814814815],[-0.275],[1],[0],[0],[2.001733500510454],[1],['target_find'],339.81043389998376,340.82341169938445,,,,,,,,,,,,,,,,,,,,,,,,,,,,,,,,264035,001,2023-11-06_13h05.29.117,Selektive Wahrnehmung,2023.2.3,60.02112737411429,2023-11-06 13h06.27.910009 +0100,
gesicht2,3,11,59,9,,,,,340.8561332989484,,,,,,,,,,340.8239144999534,340.8561332989484,342.8561383988708,343.83911520056427,3.0157652013003826,345.1098433993757,"[-300, -300]",[-0.2324074074074074],[-0.22777777777777777],[1],[0],[0],[1.2702818997204304],[1],['target_find'],345.1103763990104,346.1234978996217,,,,,,,,,,,,,,,,,,,,,,,,,,,,,,,,264035,001,2023-11-06_13h05.29.117,Selektive Wahrnehmung,2023.2.3,60.02112737411429,2023-11-06 13h06.27.910009 +0100,
schiff1,3,12,60,14,,,,,346.15596489980817,,,,,,,,,,346.12399470061064,346.15596489980817,348.1558024995029,349.1726267002523,2.999039800837636,350.0254637990147,"[-300, 300]",[-0.21574074074074073],[0.23425925925925925],[1],[0],[0],[0.9016875997185707],[1],['target_find'],350.0265397001058,351.03989319875836,,,,,,,,,,,,,,,,,,,,,,,,,,,,,,,,264035,001,2023-11-06_13h05.29.117,Selektive Wahrnehmung,2023.2.3,60.02112737411429,2023-11-06 13h06.27.910009 +0100,
person2,3,13,61,5,,,,,351.0723269004375,,,,,,,,,,351.0403851997107,351.0723269004375,353.0723173003644,354.0721712000668,3.032353300601244,355.14202849939466,"[0, 300]",[-0.010185185185185186],[0.2101851851851852],[1],[0],[0],[1.0693982001394033],[1],['target_find'],355.14256449975073,356.15636719949543,,,,,,,,,,,,,,,,,,,,,,,,,,,,,,,,264035,001,2023-11-06_13h05.29.117,Selektive Wahrnehmung,2023.2.3,60.02112737411429,2023-11-06 13h06.27.910009 +0100,
spinne1,3,14,62,0,,,,,356.2055759988725,,,,,,,,,,356.1568458992988,356.2055759988725,358.20554349943995,359.17230279929936,3.016015799716115,360.3900796994567,"[300, -300]",[0.20277777777777778],[-0.24814814814814815],[1],[0],[0],[1.2172460984438658],[1],['target_find'],360.39060979895294,361.40579009987414,,,,,,,,,,,,,,,,,,,,,,,,,,,,,,,,264035,001,2023-11-06_13h05.29.117,Selektive Wahrnehmung,2023.2.3,60.02112737411429,2023-11-06 13h06.27.910009 +0100,
gruppe2,3,15,63,7,,,,,361.43852270022035,,,,,,,,,,361.4060682989657,361.43852270022035,363.43851399980485,364.4220835994929,3.016600400209427,365.5079065002501,"[300, 0]",[0.22407407407407406],[-0.016666666666666666],[1],[0],[0],[1.084534201771021],[1],['target_find'],365.509338600561,366.5220088995993,,,,,,,,,,,,,,,,,,,,,,,,,,,,,,,,264035,001,2023-11-06_13h05.29.117,Selektive Wahrnehmung,2023.2.3,60.02112737411429,2023-11-06 13h06.27.910009 +0100,
gesicht1,4,0,64,8,,,,,366.5550164002925,,,,,,,,,,366.5222567990422,366.5550164002925,368.55502239987254,369.53859549947083,3.0167097989469767,370.35780110023916,"[-300, 300]",[-0.24351851851851852],[0.2490740740740741],[1],[0],[0],[0.8187125008553267],[1],['target_find'],370.35829919949174,371.37160580046475,,,,,,,,,,,,,,,,,,,,,,,,,,,,,,,,264035,001,2023-11-06_13h05.29.117,Selektive Wahrnehmung,2023.2.3,60.02112737411429,2023-11-06 13h06.27.910009 +0100,
person1,4,1,65,4,,,,,371.4051588997245,,,,,,,,,,371.37186489999294,371.4051588997245,373.4048506990075,374.4047119002789,3.0332054998725653,375.4227213989943,"[0, 300]",[-0.010185185185185186],[0.22037037037037038],[1],[0],[0],[1.0174755994230509],[1],['target_find'],375.423246499151,376.4392981994897,,,,,,,,,,,,,,,,,,,,,,,,,,,,,,,,264035,001,2023-11-06_13h05.29.117,Selektive Wahrnehmung,2023.2.3,60.02112737411429,2023-11-06 13h06.27.910009 +0100,
spinne1,4,2,66,0,,,,,376.47135050036013,,,,,,,,,,376.4400736987591,376.47135050036013,378.4710454996675,379.47105930000544,3.0318217016756535,380.49109249934554,"[-300, 300]",[-0.20092592592592592],[0.1935185185185185],[1],[0],[0],[1.019081000238657],[1],['target_find'],380.49251529946923,381.50556799955666,,,,,,,,,,,,,,,,,,,,,,,,,,,,,,,,264035,001,2023-11-06_13h05.29.117,Selektive Wahrnehmung,2023.2.3,60.02112737411429,2023-11-06 13h06.27.910009 +0100,
gruppe2,4,3,67,7,,,,,381.55456329882145,,,,,,,,,,381.50620350055397,381.55456329882145,383.5544639993459,384.55472620017827,2.9991479013115168,385.77400689944625,"[0, -300]",[0.023148148148148147],[-0.29907407407407405],[1],[0],[0],[1.2680492009967566],[1],['target_find'],385.77518359944224,386.78827540017664,,,,,,,,,,,,,,,,,,,,,,,,,,,,,,,,264035,001,2023-11-06_13h05.29.117,Selektive Wahrnehmung,2023.2.3,60.02112737411429,2023-11-06 13h06.27.910009 +0100,
schlange2,4,4,68,3,,,,,386.837501000613,,,,,,,,,,386.7888393998146,386.837501000613,388.83757869899273,389.82096710056067,3.0327726993709803,392.4558667000383,"[0, -300]",[-0.002777777777777778],[-0.29259259259259257],[1],[0],[0],[2.6343294996768236],[1],['target_find'],392.45644309930503,393.47218010015786,,,,,,,,,,,,,,,,,,,,,,,,,,,,,,,,264035,001,2023-11-06_13h05.29.117,Selektive Wahrnehmung,2023.2.3,60.02112737411429,2023-11-06 13h06.27.910009 +0100,
flugzeug1,4,5,69,13,,,,,393.5208547003567,,,,,,,,,,393.4729254990816,393.5208547003567,395.520891899243,396.5208016000688,3.0488335005939007,397.8735559992492,"[300, 300]",[0.23148148148148148],[0.16944444444444445],[1],[0],[0],[1.3517519012093544],[1],['target_find'],397.87463969923556,398.88807619921863,,,,,,,,,,,,,,,,,,,,,,,,,,,,,,,,264035,001,2023-11-06_13h05.29.117,Selektive Wahrnehmung,2023.2.3,60.02112737411429,2023-11-06 13h06.27.910009 +0100,
gruppe1,4,6,70,6,,,,,398.9206309001893,,,,,,,,,,398.8885970003903,398.9206309001893,400.920124899596,401.92067969962955,3.0326808001846075,402.9737030994147,"[300, -300]",[0.2564814814814815],[-0.24166666666666667],[1],[0],[0],[1.052581300958991],[1],['target_find'],402.97420180030167,403.98804169893265,,,,,,,,,,,,,,,,,,,,,,,,,,,,,,,,264035,001,2023-11-06_13h05.29.117,Selektive Wahrnehmung,2023.2.3,60.02112737411429,2023-11-06 13h06.27.910009 +0100,
auto1,4,7,71,12,,,,,404.03706279955804,,,,,,,,,,403.98863830044866,404.03706279955804,406.03705650009215,407.0368552003056,2.999161198735237,408.4551074001938,"[300, -300]",[0.1935185185185185],[-0.2916666666666667],[1],[0],[0],[1.466932998970151],[1],['target_find'],408.4557454995811,409.4711779989302,,,,,,,,,,,,,,,,,,,,,,,,,,,,,,,,264035,001,2023-11-06_13h05.29.117,Selektive Wahrnehmung,2023.2.3,60.02112737411429,2023-11-06 13h06.27.910009 +0100,
zug1,4,8,72,15,,,,,409.5201551988721,,,,,,,,,,409.47177479974926,409.5201551988721,411.5201811995357,412.50347520038486,3.0323910005390644,414.4549122992903,"[-300, -300]",[-0.2898148148148148],[-0.23981481481481481],[1],[0],[0],[1.9508605003356934],[1],['target_find'],414.4554538987577,415.47075730003417,,,,,,,,,,,,,,,,,,,,,,,,,,,,,,,,264035,001,2023-11-06_13h05.29.117,Selektive Wahrnehmung,2023.2.3,60.02112737411429,2023-11-06 13h06.27.910009 +0100,
schiff1,4,9,73,14,,,,,415.5035702995956,,,,,,,,,,415.47123439982533,415.5035702995956,417.5034248996526,418.48671060055494,3.0160455014556646,419.6895396001637,"[300, 0]",[0.2712962962962963],[-0.08518518518518518],[1],[0],[0],[1.20202000066638],[1],['target_find'],419.69071829877794,420.70406419970095,,,,,,,,,,,,,,,,,,,,,,,,,,,,,,,,264035,001,2023-11-06_13h05.29.117,Selektive Wahrnehmung,2023.2.3,60.02112737411429,2023-11-06 13h06.27.910009 +0100,
gesicht2,4,10,74,9,,,,,420.7530831005424,,,,,,,,,,420.70455849915743,420.7530831005424,422.75308110006154,423.7365450989455,2.9990864992141724,424.4386362992227,"[300, 300]",[0.3527777777777778],[0.2101851851851852],[1],[0],[0],[0.7347768004983664],[1],['target_find'],424.4391318988055,425.4534246996045,,,,,,,,,,,,,,,,,,,,,,,,,,,,,,,,264035,001,2023-11-06_13h05.29.117,Selektive Wahrnehmung,2023.2.3,60.02112737411429,2023-11-06 13h06.27.910009 +0100,
spinne2,4,11,75,1,,,,,425.6362874992192,,,,,,,,,,425.4537304993719,425.6362874992192,427.6363877989352,428.4865099005401,3.0333678983151913,430.1378891002387,"[-300, -300]",[-0.22777777777777777],[-0.2916666666666667],[1],[0],[0],[1.6505657006055117],[1],['target_find'],430.138523299247,431.1538024004549,,,,,,,,,,,,,,,,,,,,,,,,,,,,,,,,264035,001,2023-11-06_13h05.29.117,Selektive Wahrnehmung,2023.2.3,60.02112737411429,2023-11-06 13h06.27.910009 +0100,
schlange1,4,12,76,2,,,,,431.2195330001414,,,,,,,,,,431.1544084995985,431.2195330001414,433.2192960996181,434.21949379891157,3.0659193992614746,435.7886512000114,"[-300, -300]",[-0.19907407407407407],[-0.27685185185185185],[1],[0],[0],[1.568230301141739],[1],['target_find'],435.7896509990096,436.80337939970195,,,,,,,,,,,,,,,,,,,,,,,,,,,,,,,,264035,001,2023-11-06_13h05.29.117,Selektive Wahrnehmung,2023.2.3,60.02112737411429,2023-11-06 13h06.27.910009 +0100,
person2,4,13,77,5,,,,,436.8359538000077,,,,,,,,,,436.80391629971564,436.8359538000077,438.83587959967554,439.8359797988087,2.9992248993366957,440.42287609912455,"[0, 300]",[0.022222222222222223],[0.1787037037037037],[1],[0],[0],[0.6192143000662327],[1],['target_find'],440.4239575006068,441.4363048989326,,,,,,,,,,,,,,,,,,,,,,,,,,,,,,,,264035,001,2023-11-06_13h05.29.117,Selektive Wahrnehmung,2023.2.3,60.02112737411429,2023-11-06 13h06.27.910009 +0100,
gesicht4,4,14,78,11,,,,,441.4692560005933,,,,,,,,,,441.43665819987655,441.4692560005933,443.4689367990941,444.46902609989047,3.032813899219036,445.57102230004966,"[-300, -300]",[-0.2833333333333333],[-0.33055555555555555],[1],[0],[0],[1.1012603994458914],[1],['target_find'],445.57201679982245,446.5864777993411,,,,,,,,,,,,,,,,,,,,,,,,,,,,,,,,264035,001,2023-11-06_13h05.29.117,Selektive Wahrnehmung,2023.2.3,60.02112737411429,2023-11-06 13h06.27.910009 +0100,
gesicht3,4,15,79,10,,,,,446.6355415005237,,,,,,,,,,446.5870197992772,446.6355415005237,448.6354048997164,449.63544629886746,3.0490437000989914,450.4383244998753,"[-300, 300]",[-0.2814814814814815],[0.22685185185185186],[1],[0],[0],[0.8020845986902714],[1],['target_find'],450.43948349915445,451.4524429999292,,,,,,,,,,,,,,,,,,,,,,,,,,,,,,,,264035,001,2023-11-06_13h05.29.117,Selektive Wahrnehmung,2023.2.3,60.02112737411429,2023-11-06 13h06.27.910009 +0100,
,,,,,0,0,0,0,462.40167289972305,,,,,,,,,,,,,,,,,,,,,,,,,,,451.464434100315,459.3526565991342,459.3526844996959,462.336397299543,462.3375892993063,471.9747489001602,3.0,1.0,person1,,,,,,,,,,,,,,,,,,,,,,,264035,001,2023-11-06_13h05.29.117,Selektive Wahrnehmung,2023.2.3,60.02112737411429,2023-11-06 13h06.27.910009 +0100,
,,,,,1,0,1,0,472.01904979906976,,,,,,,,,,,,,,,,,,,,,,,,,,,,,,,471.9751236997545,480.02431869879365,1.0,3.0,spinne2,,,,,,,,,,,,,,,,,,,,,,,264035,001,2023-11-06_13h05.29.117,Selektive Wahrnehmung,2023.2.3,60.02112737411429,2023-11-06 13h06.27.910009 +0100,
,,,,,2,0,2,0,480.15093329921365,,,,,,,,,,,,,,,,,,,,,,,,,,,,,,,480.02464490011334,488.27336709946394,4.0,1.0,gesicht3,,,,,,,,,,,,,,,,,,,,,,,264035,001,2023-11-06_13h05.29.117,Selektive Wahrnehmung,2023.2.3,60.02112737411429,2023-11-06 13h06.27.910009 +0100,
,,,,,3,0,3,0,488.351635299623,,,,,,,,,,,,,,,,,,,,,,,,,,,,,,,488.27367509901524,493.5565728005022,1.0,5.0,auto1,,,,,,,,,,,,,,,,,,,,,,,264035,001,2023-11-06_13h05.29.117,Selektive Wahrnehmung,2023.2.3,60.02112737411429,2023-11-06 13h06.27.910009 +0100,
,,,,,4,0,4,0,493.60133370012045,,,,,,,,,,,,,,,,,,,,,,,,,,,,,,,493.55688310042024,501.80719530023634,1.0,2.0,gesicht2,,,,,,,,,,,,,,,,,,,,,,,264035,001,2023-11-06_13h05.29.117,Selektive Wahrnehmung,2023.2.3,60.02112737411429,2023-11-06 13h06.27.910009 +0100,
,,,,,,,,,,,,,,,,,,,,,,,,,,,,,,,,,,,,,,,,,,,,,501.81152370013297,512.4198251999915, 18 ,1.0,512.4198473989964,523.5887308996171,2.0,1.0,523.5887489002198,525.6838975995779,525.6839253995568,539.1350126992911,5.0,2.0,4.0,4.0,539.1350414995104,547.2552610002458,3.0,4.0,547.255282798782,548.8658943995833,,,,,,,,
