Target,trials.thisRepN,trials.thisTrialN,trials.thisN,trials.thisIndex,trials_2.thisRepN,trials_2.thisTrialN,trials_2.thisN,trials_2.thisIndex,thisRow.t,notes,Data_transparency.started,key_resp_data_transp.started,Data_transparency.stopped,key_resp_data_transp.keys,key_resp_data_transp.rt,key_resp_data_transp.duration,instructions.started,instructions.stopped,trial.started,target_show.started,target_show.stopped,target_find.started,mouse.started,trial.stopped,target_position_x_y,mouse.x,mouse.y,mouse.leftButton,mouse.midButton,mouse.rightButton,mouse.time,mouse.corr,mouse.clicked_name,feedback.started,feedback.stopped,target_find.stopped,instructions_survey.started,instructions_survey.stopped,instructions_ratings.started,instructions_ratings.stopped,survey_ratings.started,survey_ratings.stopped,furcht.response,liebenswert.response,rated_image,survey_gen.started,survey_gen.stopped,age.text,gender.response,survey_games.started,survey_games.stopped,pc_frequency.response,reaction_games_frequency.response,instructions_neuro.started,instructions_neuro.stopped,survey_neuro.started,survey_neuro.stopped,neuro_1_rev.response,neuro_2.response,neuro_3.response,neuro_4_rev.response,survey_fear.started,survey_fear.stopped,specific_fear_spider.response,specific_fear_snake.response,thanks.started,participant,session,date,expName,psychopyVersion,frameRate,expStart,
,,,,,,,,,,,0.004684826359152794,0.012687429785728455,36.679819924756885,z,36.6623629052192,None,,,,,,,,,,,,,,,,,,,,,,,,,,,,,,,,,,,,,,,,,,,,,,,,,,,313766,001,2023-11-06_14h26.17.334,Selektive Wahrnehmung,2023.2.3,59.97137593999668,2023-11-06 14h27.02.651266 +0100,
,,,,,,,,,,,,,,,,,36.67984410189092,54.76467129774392,,,,,,,,,,,,,,,,,,,,,,,,,,,,,,,,,,,,,,,,,,,,,,,,,313766,001,2023-11-06_14h26.17.334,Selektive Wahrnehmung,2023.2.3,59.97137593999668,2023-11-06 14h27.02.651266 +0100,
zug1,0,0,0,15,,,,,54.80488029681146,,,,,,,,,,54.78032464534044,54.80488029681146,56.81274010799825,57.78088784776628,3.0163411367684603,58.797479297965765,"[0, -300]",[-0.014814814814814815],[-0.3574074074074074],[1],[0],[0],[1.0159525834023952],[1],['target_find'],58.79847542755306,59.81311301700771,,,,,,,,,,,,,,,,,,,,,,,,,,,,,,,,313766,001,2023-11-06_14h26.17.334,Selektive Wahrnehmung,2023.2.3,59.97137593999668,2023-11-06 14h27.02.651266 +0100,
person1,0,1,1,4,,,,,59.8375739492476,,,,,,,,,,59.81336674280465,59.8375739492476,61.84584535472095,62.81269488111138,2.999712424352765,63.73077216371894,"[300, 300]",[0.22592592592592592],[0.1962962962962963],[1],[0],[0],[0.9174332953989506],[1],['target_find'],63.73129184730351,64.74722622521222,,,,,,,,,,,,,,,,,,,,,,,,,,,,,,,,313766,001,2023-11-06_14h26.17.334,Selektive Wahrnehmung,2023.2.3,59.97137593999668,2023-11-06 14h27.02.651266 +0100,
person2,0,2,2,5,,,,,64.77797995693982,,,,,,,,,,64.74780734814703,64.77797995693982,66.77957200072706,67.76286193728447,3.015796422958374,68.73040039278567,"[-300, -300]",[-0.20185185185185187],[-0.1824074074074074],[1],[0],[0],[0.966918932273984],[1],['target_find'],68.73090101778507,69.74667866714299,,,,,,,,,,,,,,,,,,,,,,,,,,,,,,,,313766,001,2023-11-06_14h26.17.334,Selektive Wahrnehmung,2023.2.3,59.97137593999668,2023-11-06 14h27.02.651266 +0100,
schlange1,0,3,3,2,,,,,69.77179098129272,,,,,,,,,,69.7470054961741,69.77179098129272,71.77951909415424,72.74615585617721,2.999623393639922,74.13040568307042,"[300, 300]",[0.25925925925925924],[0.20462962962962963],[1],[0],[0],[1.3836428187787533],[1],['target_find'],74.13089123181999,75.14708047546446,,,,,,,,,,,,,,,,,,,,,,,,,,,,,,,,313766,001,2023-11-06_14h26.17.334,Selektive Wahrnehmung,2023.2.3,59.97137593999668,2023-11-06 14h27.02.651266 +0100,
gesicht4,0,4,4,11,,,,,75.17684348113835,,,,,,,,,,75.14766558073461,75.17684348113835,77.17960857972503,78.14607894234359,2.9991520661860704,79.16468967311084,"[300, 0]",[0.2564814814814815],[0.07314814814814814],[1],[0],[0],[1.017982106655836],[1],['target_find'],79.16527733951807,80.1803194116801,,,,,,,,,,,,,,,,,,,,,,,,,,,,,,,,313766,001,2023-11-06_14h26.17.334,Selektive Wahrnehmung,2023.2.3,59.97137593999668,2023-11-06 14h27.02.651266 +0100,
gruppe1,0,5,5,6,,,,,80.20440515875816,,,,,,,,,,80.1808476280421,80.20440515875816,82.21276787109673,83.17928232066333,2.999059906229377,84.0641607735306,"[-300, -300]",[-0.2962962962962963],[-0.26851851851851855],[1],[0],[0],[0.8843035884201527],[1],['target_find'],84.06463409215212,85.08012160658836,,,,,,,,,,,,,,,,,,,,,,,,,,,,,,,,313766,001,2023-11-06_14h26.17.334,Selektive Wahrnehmung,2023.2.3,59.97137593999668,2023-11-06 14h27.02.651266 +0100,
gesicht3,0,6,6,10,,,,,85.11303684301674,,,,,,,,,,85.0806000456214,85.11303684301674,87.11301323398948,88.07931292802095,2.9992786440998316,88.94722673855722,"[300, 0]",[0.20092592592592592],[-0.05555555555555555],[1],[0],[0],[0.8674057889729738],[1],['target_find'],88.9477265086025,89.96340517140925,,,,,,,,,,,,,,,,,,,,,,,,,,,,,,,,313766,001,2023-11-06_14h26.17.334,Selektive Wahrnehmung,2023.2.3,59.97137593999668,2023-11-06 14h27.02.651266 +0100,
auto1,0,7,7,12,,,,,90.22179049812257,,,,,,,,,,89.96382017806172,90.22179049812257,92.22951462864876,92.96378974243999,3.0005361810326576,94.0984407812357,"[-300, -300]",[-0.17685185185185184],[-0.28888888888888886],[1],[0],[0],[1.1340491510927677],[1],['target_find'],94.09892576187849,95.11359236575663,,,,,,,,,,,,,,,,,,,,,,,,,,,,,,,,313766,001,2023-11-06_14h26.17.334,Selektive Wahrnehmung,2023.2.3,59.97137593999668,2023-11-06 14h27.02.651266 +0100,
flugzeug1,0,8,8,13,,,,,95.40118147619069,,,,,,,,,,95.11407535523176,95.40118147619069,97.41287362761796,98.11819840036333,3.004861181601882,99.89813761971891,"[0, 300]",[0.025],[0.18425925925925926],[1],[0],[0],[1.7791959624737501],[1],['target_find'],99.8986592926085,100.91359668970108,,,,,,,,,,,,,,,,,,,,,,,,,,,,,,,,313766,001,2023-11-06_14h26.17.334,Selektive Wahrnehmung,2023.2.3,59.97137593999668,2023-11-06 14h27.02.651266 +0100,
schlange2,0,9,9,3,,,,,101.14485952071846,,,,,,,,,,100.91413116268814,101.14485952071846,103.14623993821442,103.91286225058138,2.99934065528214,105.56407885439694,"[300, 300]",[0.21944444444444444],[0.19814814814814816],[1],[0],[0],[1.6506784316152334],[1],['target_find'],105.56462811864913,106.58023652434349,,,,,,,,,,,,,,,,,,,,,,,,,,,,,,,,313766,001,2023-11-06_14h26.17.334,Selektive Wahrnehmung,2023.2.3,59.97137593999668,2023-11-06 14h27.02.651266 +0100,
schiff1,0,10,10,14,,,,,106.64636168070138,,,,,,,,,,106.58064498752356,106.64636168070138,108.64627691544592,109.57969692908227,2.9996029138565063,110.48093216493726,"[-300, -300]",[-0.34629629629629627],[-0.3333333333333333],[1],[0],[0],[0.9006273746490479],[1],['target_find'],110.48140263743699,111.49759700149298,,,,,,,,,,,,,,,,,,,,,,,,,,,,,,,,313766,001,2023-11-06_14h26.17.334,Selektive Wahrnehmung,2023.2.3,59.97137593999668,2023-11-06 14h27.02.651266 +0100,
gruppe2,0,11,11,7,,,,,111.60987494140863,,,,,,,,,,111.49815394729376,111.60987494140863,113.613126443699,114.51344462484121,3.0159201584756374,115.21420659869909,"[-300, 0]",[-0.23981481481481481],[0.004629629629629629],[1],[0],[0],[0.7002257946878672],[1],['target_find'],115.21467621810734,116.23029571585357,,,,,,,,,,,,,,,,,,,,,,,,,,,,,,,,313766,001,2023-11-06_14h26.17.334,Selektive Wahrnehmung,2023.2.3,59.97137593999668,2023-11-06 14h27.02.651266 +0100,
spinne1,0,12,12,0,,,,,116.26093566976488,,,,,,,,,,116.23071328364313,116.26093566976488,118.26300472952425,119.23045074008405,3.000287290662527,120.03122761845589,"[300, 0]",[0.30092592592592593],[0.010185185185185186],[1],[0],[0],[0.8001101370900869],[1],['target_find'],120.03184515051544,121.04744331538677,,,,,,,,,,,,,,,,,,,,,,,,,,,,,,,,313766,001,2023-11-06_14h26.17.334,Selektive Wahrnehmung,2023.2.3,59.97137593999668,2023-11-06 14h27.02.651266 +0100,
spinne2,0,13,13,1,,,,,121.44948779977858,,,,,,,,,,121.04809697158635,121.44948779977858,123.46298020891845,124.06330345384777,2.999004155397415,124.79771254397929,"[-300, -300]",[-0.26296296296296295],[-0.2064814814814815],[1],[0],[0],[0.7504902426153421],[1],['target_find'],124.79818699881434,125.81361364200711,,,,,,,,,,,,,,,,,,,,,,,,,,,,,,,,313766,001,2023-11-06_14h26.17.334,Selektive Wahrnehmung,2023.2.3,59.97137593999668,2023-11-06 14h27.02.651266 +0100,
gesicht1,0,14,14,8,,,,,125.9133014343679,,,,,,,,,,125.81402409821749,125.9133014343679,127.91328180767596,128.81389012373984,3.000448003411293,129.44767815433443,"[-300, -300]",[-0.22407407407407406],[-0.23981481481481481],[1],[0],[0],[0.6331770401448011],[1],['target_find'],129.44817650318146,130.46375731565058,,,,,,,,,,,,,,,,,,,,,,,,,,,,,,,,313766,001,2023-11-06_14h26.17.334,Selektive Wahrnehmung,2023.2.3,59.97137593999668,2023-11-06 14h27.02.651266 +0100,
gesicht2,0,15,15,9,,,,,130.49498351104558,,,,,,,,,,130.46417943388224,130.49498351104558,132.4969959668815,133.4688463397324,3.0052776113152504,134.53112152032554,"[300, 300]",[0.30277777777777776],[0.26944444444444443],[1],[0],[0],[1.0616186782717705],[1],['target_find'],134.53159910440445,135.5473483093083,,,,,,,,,,,,,,,,,,,,,,,,,,,,,,,,313766,001,2023-11-06_14h26.17.334,Selektive Wahrnehmung,2023.2.3,59.97137593999668,2023-11-06 14h27.02.651266 +0100,
gesicht2,1,0,16,9,,,,,135.57096898928285,,,,,,,,,,135.54790838435292,135.57096898928285,137.5802410747856,138.5465754698962,2.999365970492363,139.5820959471166,"[0, -300]",[-0.08148148148148149],[-0.3388888888888889],[1],[0],[0],[1.0349410586059093],[1],['target_find'],139.5825695488602,140.59749812819064,,,,,,,,,,,,,,,,,,,,,,,,,,,,,,,,313766,001,2023-11-06_14h26.17.334,Selektive Wahrnehmung,2023.2.3,59.97137593999668,2023-11-06 14h27.02.651266 +0100,
spinne1,1,1,17,0,,,,,140.62178668566048,,,,,,,,,,140.59809631854296,140.62178668566048,142.62984845414758,143.59633076190948,3.015579106286168,144.5144023541361,"[300, 300]",[0.21388888888888888],[0.18055555555555555],[1],[0],[0],[0.90085094794631],[1],['target_find'],144.51486998423934,145.5311838146299,,,,,,,,,,,,,,,,,,,,,,,,,,,,,,,,313766,001,2023-11-06_14h26.17.334,Selektive Wahrnehmung,2023.2.3,59.97137593999668,2023-11-06 14h27.02.651266 +0100,
auto1,1,2,18,12,,,,,145.56986704468727,,,,,,,,,,145.5319068748504,145.56986704468727,147.57995549030602,148.54649013653398,3.015370322391391,149.2145655695349,"[-300, 0]",[-0.2657407407407407],[-0.007407407407407408],[1],[0],[0],[0.6675500608980656],[1],['target_find'],149.21503575891256,150.23066549561918,,,,,,,,,,,,,,,,,,,,,,,,,,,,,,,,313766,001,2023-11-06_14h26.17.334,Selektive Wahrnehmung,2023.2.3,59.97137593999668,2023-11-06 14h27.02.651266 +0100,
gruppe2,1,3,19,7,,,,,150.2615119572729,,,,,,,,,,150.23113341070712,150.2615119572729,152.2637252304703,153.23321527056396,3.002796957269311,157.24669232033193,"[300, 0]",[],[],[],[],[],[],[],[],157.24729506112635,158.24733488447964,157.2465219385922,,,,,,,,,,,,,,,,,,,,,,,,,,,,,,,313766,001,2023-11-06_14h26.17.334,Selektive Wahrnehmung,2023.2.3,59.97137593999668,2023-11-06 14h27.02.651266 +0100,
schlange1,1,4,20,2,,,,,158.29017870686948,,,,,,,,,,158.24784745648503,158.29017870686948,160.29649426043034,161.24638284370303,2.9991219136863947,162.61476428247988,"[0, 300]",[0.062037037037037036],[0.3101851851851852],[1],[0],[0],[1.3678643181920052],[1],['target_find'],162.61523589491844,163.6305254343897,,,,,,,,,,,,,,,,,,,,,,,,,,,,,,,,313766,001,2023-11-06_14h26.17.334,Selektive Wahrnehmung,2023.2.3,59.97137593999668,2023-11-06 14h27.02.651266 +0100,
gruppe1,1,5,21,6,,,,,163.65330301597714,,,,,,,,,,163.63093532249331,163.65330301597714,165.6634790711105,166.62982143089175,2.99936824478209,167.4812996685505,"[-300, 300]",[-0.2074074074074074],[0.29074074074074074],[1],[0],[0],[0.8509693630039692],[1],['target_find'],167.4819433707744,168.49830498732626,,,,,,,,,,,,,,,,,,,,,,,,,,,,,,,,313766,001,2023-11-06_14h26.17.334,Selektive Wahrnehmung,2023.2.3,59.97137593999668,2023-11-06 14h27.02.651266 +0100,
schiff1,1,6,22,14,,,,,168.53102907538414,,,,,,,,,,168.4991469476372,168.53102907538414,170.53029406629503,171.51418759673834,3.0160370636731386,172.2481082919985,"[-300, -300]",[-0.32592592592592595],[-0.2574074074074074],[1],[0],[0],[0.7332445681095123],[1],['target_find'],172.2486214339733,173.26405035331845,,,,,,,,,,,,,,,,,,,,,,,,,,,,,,,,313766,001,2023-11-06_14h26.17.334,Selektive Wahrnehmung,2023.2.3,59.97137593999668,2023-11-06 14h27.02.651266 +0100,
person2,1,7,23,5,,,,,173.2981397807598,,,,,,,,,,173.264453696087,173.2981397807598,175.3135982826352,176.26429725065827,3.000384571030736,177.4146955050528,"[-300, 300]",[-0.23055555555555557],[0.24537037037037038],[1],[0],[0],[1.1498185526579618],[1],['target_find'],177.4151682537049,178.43149090185761,,,,,,,,,,,,,,,,,,,,,,,,,,,,,,,,313766,001,2023-11-06_14h26.17.334,Selektive Wahrnehmung,2023.2.3,59.97137593999668,2023-11-06 14h27.02.651266 +0100,
spinne2,1,8,24,1,,,,,178.8160143662244,,,,,,,,,,178.43221140280366,178.8160143662244,180.83027364313602,181.44960186257958,3.0182932894676924,182.36521925404668,"[300, -300]",[0.29444444444444445],[-0.41388888888888886],[1],[0],[0],[0.9149187933653593],[1],['target_find'],182.36568830534816,183.38102705590427,,,,,,,,,,,,,,,,,,,,,,,,,,,,,,,,313766,001,2023-11-06_14h26.17.334,Selektive Wahrnehmung,2023.2.3,59.97137593999668,2023-11-06 14h27.02.651266 +0100,
flugzeug1,1,9,25,13,,,,,183.41295412555337,,,,,,,,,,183.38144604489207,183.41295412555337,185.4135139156133,186.3967424109578,2.9991441015154123,187.23187666758895,"[-300, -300]",[-0.27037037037037037],[-0.21851851851851853],[1],[0],[0],[0.8509633913636208],[1],['target_find'],187.23249107040465,188.2481865156442,,,,,,,,,,,,,,,,,,,,,,,,,,,,,,,,313766,001,2023-11-06_14h26.17.334,Selektive Wahrnehmung,2023.2.3,59.97137593999668,2023-11-06 14h27.02.651266 +0100,
gesicht3,1,10,26,10,,,,,188.2825575452298,,,,,,,,,,188.24890644848347,188.2825575452298,190.29732654988766,191.25028942525387,3.0022272132337093,192.61533573456109,"[300, -300]",[0.30833333333333335],[-0.2675925925925926],[1],[0],[0],[1.3644782733172178],[1],['target_find'],192.61580108851194,193.6309085842222,,,,,,,,,,,,,,,,,,,,,,,,,,,,,,,,313766,001,2023-11-06_14h26.17.334,Selektive Wahrnehmung,2023.2.3,59.97137593999668,2023-11-06 14h27.02.651266 +0100,
gesicht4,1,11,27,11,,,,,193.67609254457057,,,,,,,,,,193.63134520873427,193.67609254457057,195.6804980430752,196.63295944035053,3.0022183936089277,197.9648131802678,"[300, 300]",[0.30185185185185187],[0.2916666666666667],[1],[0],[0],[1.3312117457389832],[1],['target_find'],197.96528308466077,198.98112160526216,,,,,,,,,,,,,,,,,,,,,,,,,,,,,,,,313766,001,2023-11-06_14h26.17.334,Selektive Wahrnehmung,2023.2.3,59.97137593999668,2023-11-06 14h27.02.651266 +0100,
gesicht1,1,12,28,8,,,,,199.01466205343604,,,,,,,,,,198.98171979561448,199.01466205343604,201.03012482076883,201.98097653873265,3.0000199116766453,203.11611198820174,"[-300, -300]",[-0.32685185185185184],[-0.37222222222222223],[1],[0],[0],[1.1344226282089949],[1],['target_find'],203.1168393176049,204.13089379295707,,,,,,,,,,,,,,,,,,,,,,,,,,,,,,,,313766,001,2023-11-06_14h26.17.334,Selektive Wahrnehmung,2023.2.3,59.97137593999668,2023-11-06 14h27.02.651266 +0100,
zug1,1,13,29,15,,,,,204.15347254648805,,,,,,,,,,204.13132558204234,204.15347254648805,206.16367192566395,207.13040909729898,2.9996580965816975,207.73129213042557,"[-300, -300]",[-0.32685185185185184],[-0.3712962962962963],[1],[0],[0],[0.6002726126462221],[1],['target_find'],207.73179104924202,208.74771177582443,,,,,,,,,,,,,,,,,,,,,,,,,,,,,,,,313766,001,2023-11-06_14h26.17.334,Selektive Wahrnehmung,2023.2.3,59.97137593999668,2023-11-06 14h27.02.651266 +0100,
schlange2,1,14,30,3,,,,,208.77886344492435,,,,,,,,,,208.7481850925833,208.77886344492435,210.7805388327688,211.7469065077603,2.999295996502042,213.08233402855694,"[300, -300]",[0.2490740740740741],[-0.31574074074074077],[1],[0],[0],[1.334869435057044],[1],['target_find'],213.0829453021288,214.09762043878436,,,,,,,,,,,,,,,,,,,,,,,,,,,,,,,,313766,001,2023-11-06_14h26.17.334,Selektive Wahrnehmung,2023.2.3,59.97137593999668,2023-11-06 14h27.02.651266 +0100,
person1,1,15,31,4,,,,,214.12515793927014,,,,,,,,,,214.09802463650703,214.12515793927014,216.1304233185947,217.09711014293134,2.999633349478245,218.19839851371944,"[300, 0]",[0.25555555555555554],[-0.04351851851851852],[1],[0],[0],[1.1006455216556787],[1],['target_find'],218.19887382164598,219.21535945869982,,,,,,,,,,,,,,,,,,,,,,,,,,,,,,,,313766,001,2023-11-06_14h26.17.334,Selektive Wahrnehmung,2023.2.3,59.97137593999668,2023-11-06 14h27.02.651266 +0100,
gruppe2,2,0,32,7,,,,,219.2510756328702,,,,,,,,,,219.21618378348649,219.2510756328702,221.26371385343373,222.2303716633469,3.0151228550821543,223.63163079321384,"[0, 300]",[0.032407407407407406],[0.23425925925925925],[1],[0],[0],[1.4006842635571957],[1],['target_find'],223.63210780732334,224.64787720888853,,,,,,,,,,,,,,,,,,,,,,,,,,,,,,,,313766,001,2023-11-06_14h26.17.334,Selektive Wahrnehmung,2023.2.3,59.97137593999668,2023-11-06 14h27.02.651266 +0100,
gesicht4,2,1,33,11,,,,,224.67650470510125,,,,,,,,,,224.6483471132815,224.67650470510125,226.68029409460723,227.64790195599198,3.0001925695687532,228.69856633618474,"[-300, 300]",[-0.20277777777777778],[0.18518518518518517],[1],[0],[0],[1.0499936565756798],[1],['target_find'],228.69908857904375,229.71540496870875,,,,,,,,,,,,,,,,,,,,,,,,,,,,,,,,313766,001,2023-11-06_14h26.17.334,Selektive Wahrnehmung,2023.2.3,59.97137593999668,2023-11-06 14h27.02.651266 +0100,
schlange2,2,2,34,3,,,,,229.75062222592533,,,,,,,,,,229.71623811125755,229.75062222592533,231.76390727609396,232.73055854439735,3.015277309343219,233.71512422151864,"[0, 300]",[-0.075],[0.24074074074074073],[1],[0],[0],[0.9839068986475468],[1],['target_find'],233.71574260666966,234.73114706389606,,,,,,,,,,,,,,,,,,,,,,,,,,,,,,,,313766,001,2023-11-06_14h26.17.334,Selektive Wahrnehmung,2023.2.3,59.97137593999668,2023-11-06 14h27.02.651266 +0100,
auto1,2,3,35,12,,,,,234.76030704379082,,,,,,,,,,234.73164512775838,234.76030704379082,236.76397696509957,237.73021777905524,2.999143248423934,238.51565306261182,"[-300, 300]",[-0.30185185185185187],[0.22685185185185186],[1],[0],[0],[0.7848498933017254],[1],['target_find'],238.5163903478533,239.5310913696885,,,,,,,,,,,,,,,,,,,,,,,,,,,,,,,,313766,001,2023-11-06_14h26.17.334,Selektive Wahrnehmung,2023.2.3,59.97137593999668,2023-11-06 14h27.02.651266 +0100,
zug1,2,4,36,15,,,,,239.56085096113384,,,,,,,,,,239.5315100736916,239.56085096113384,241.56397446244955,242.53060838021338,2.999659802764654,243.41530421935022,"[300, 300]",[0.37407407407407406],[0.2351851851851852],[1],[0],[0],[0.8840564042329788],[1],['target_find'],243.41585632786155,244.43112595751882,,,,,,,,,,,,,,,,,,,,,,,,,,,,,,,,313766,001,2023-11-06_14h26.17.334,Selektive Wahrnehmung,2023.2.3,59.97137593999668,2023-11-06 14h27.02.651266 +0100,
gesicht1,2,5,37,8,,,,,244.4589143395424,,,,,,,,,,244.43153925798833,244.4589143395424,246.4643449820578,247.43056844361126,2.999580157920718,248.1995957456529,"[300, 300]",[0.20185185185185187],[0.20185185185185187],[1],[0],[0],[0.7684621084481478],[1],['target_find'],248.2000591084361,249.21447141841054,,,,,,,,,,,,,,,,,,,,,,,,,,,,,,,,313766,001,2023-11-06_14h26.17.334,Selektive Wahrnehmung,2023.2.3,59.97137593999668,2023-11-06 14h27.02.651266 +0100,
spinne1,2,6,38,0,,,,,249.24379666149616,,,,,,,,,,249.21487589925528,249.24379666149616,251.24723760411143,252.21742652729154,3.0031183809041977,252.68255117349327,"[300, 300]",[0.20185185185185187],[0.20277777777777778],[1],[0],[0],[0.4643924832344055],[1],['target_find'],252.6833188943565,253.69787257164717,,,,,,,,,,,,,,,,,,,,,,,,,,,,,,,,313766,001,2023-11-06_14h26.17.334,Selektive Wahrnehmung,2023.2.3,59.97137593999668,2023-11-06 14h27.02.651266 +0100,
gesicht3,2,7,39,10,,,,,253.72681580483913,,,,,,,,,,253.69828843325377,253.72681580483913,255.73038986884058,256.6994685996324,3.0017166323959827,257.6317408736795,"[-300, -300]",[-0.2574074074074074],[-0.33425925925925926],[1],[0],[0],[0.9317326787859201],[1],['target_find'],257.6322372313589,258.6480145957321,,,,,,,,,,,,,,,,,,,,,,,,,,,,,,,,313766,001,2023-11-06_14h26.17.334,Selektive Wahrnehmung,2023.2.3,59.97137593999668,2023-11-06 14h27.02.651266 +0100,
person1,2,8,40,4,,,,,258.6783319860697,,,,,,,,,,258.6485061198473,258.6783319860697,260.68036975711584,261.64816904999316,3.0003308095037937,262.6989292893559,"[-300, -300]",[-0.2824074074074074],[-0.25],[1],[0],[0],[1.0500829722732306],[1],['target_find'],262.69954625330865,263.71474619209766,,,,,,,,,,,,,,,,,,,,,,,,,,,,,,,,313766,001,2023-11-06_14h26.17.334,Selektive Wahrnehmung,2023.2.3,59.97137593999668,2023-11-06 14h27.02.651266 +0100,
person2,2,9,41,5,,,,,263.73733689263463,,,,,,,,,,263.7152237780392,263.73733689263463,265.7474244851619,266.71379557438195,2.999155765399337,267.8825610727072,"[0, 300]",[0.075],[0.3425925925925926],[1],[0],[0],[1.1681900639086962],[1],['target_find'],267.8831911198795,268.8981649260968,,,,,,,,,,,,,,,,,,,,,,,,,,,,,,,,313766,001,2023-11-06_14h26.17.334,Selektive Wahrnehmung,2023.2.3,59.97137593999668,2023-11-06 14h27.02.651266 +0100,
gesicht2,2,10,42,9,,,,,268.9293074943125,,,,,,,,,,268.89863568358123,268.9293074943125,270.930816764012,271.8971724938601,2.9990806709975004,272.89867209270597,"[300, 0]",[0.26481481481481484],[0.10555555555555556],[1],[0],[0],[1.0009625647217035],[1],['target_find'],272.8991442732513,273.9147390238941,,,,,,,,,,,,,,,,,,,,,,,,,,,,,,,,313766,001,2023-11-06_14h26.17.334,Selektive Wahrnehmung,2023.2.3,59.97137593999668,2023-11-06 14h27.02.651266 +0100,
spinne2,2,11,43,1,,,,,274.177813725546,,,,,,,,,,273.9152345303446,274.177813725546,276.180725030601,276.914264569059,2.9996751621365547,277.83265218138695,"[0, -300]",[-0.000925925925925926],[-0.25],[1],[0],[0],[0.9178016539663076],[1],['target_find'],277.8331317566335,278.8481604605913,,,,,,,,,,,,,,,,,,,,,,,,,,,,,,,,313766,001,2023-11-06_14h26.17.334,Selektive Wahrnehmung,2023.2.3,59.97137593999668,2023-11-06 14h27.02.651266 +0100,
flugzeug1,2,12,44,13,,,,,278.8736570607871,,,,,,,,,,278.8486391827464,278.8736570607871,280.88081997819245,281.8485134579241,3.0005486961454153,282.4487251993269,"[-300, 0]",[-0.2351851851851852],[-0.023148148148148147],[1],[0],[0],[0.5995438620448112],[1],['target_find'],282.4492224100977,283.4647673834115,,,,,,,,,,,,,,,,,,,,,,,,,,,,,,,,313766,001,2023-11-06_14h26.17.334,Selektive Wahrnehmung,2023.2.3,59.97137593999668,2023-11-06 14h27.02.651266 +0100,
schiff1,2,13,45,14,,,,,283.4956895057112,,,,,,,,,,283.4651724342257,283.4956895057112,285.49755490384996,286.4641768746078,2.999552281573415,287.58223987556994,"[300, 0]",[0.20555555555555555],[-0.001851851851851852],[1],[0],[0],[1.1173891499638557],[1],['target_find'],287.5829020664096,288.598306523636,,,,,,,,,,,,,,,,,,,,,,,,,,,,,,,,313766,001,2023-11-06_14h26.17.334,Selektive Wahrnehmung,2023.2.3,59.97137593999668,2023-11-06 14h27.02.651266 +0100,
gruppe1,2,14,46,6,,,,,288.6283280905336,,,,,,,,,,288.5987724456936,288.6283280905336,290.6313238758594,291.5979569386691,2.9998458307236433,292.2155941259116,"[0, 300]",[-0.03425925925925926],[0.21944444444444444],[1],[0],[0],[0.6169858053326607],[1],['target_find'],292.2160634621978,293.2315122913569,,,,,,,,,,,,,,,,,,,,,,,,,,,,,,,,313766,001,2023-11-06_14h26.17.334,Selektive Wahrnehmung,2023.2.3,59.97137593999668,2023-11-06 14h27.02.651266 +0100,
schlange1,2,15,47,2,,,,,293.2614471036941,,,,,,,,,,293.23191506788135,293.2614471036941,295.2646570764482,296.23100171238184,2.999580157920718,296.68291156738997,"[0, 300]",[-0.025925925925925925],[0.2101851851851852],[1],[0],[0],[0.4513236116617918],[1],['target_find'],296.6835970822722,297.6993098780513,,,,,,,,,,,,,,,,,,,,,,,,,,,,,,,,313766,001,2023-11-06_14h26.17.334,Selektive Wahrnehmung,2023.2.3,59.97137593999668,2023-11-06 14h27.02.651266 +0100,
gesicht2,3,0,48,9,,,,,297.7347808610648,,,,,,,,,,297.7000975087285,297.7347808610648,299.74753655679524,300.71399696171284,3.0147485248744488,301.56581568159163,"[-300, -300]",[-0.3648148148148148],[-0.2833333333333333],[1],[0],[0],[0.8512242268770933],[1],['target_find'],301.5663717724383,302.58169658482075,,,,,,,,,,,,,,,,,,,,,,,,,,,,,,,,313766,001,2023-11-06_14h26.17.334,Selektive Wahrnehmung,2023.2.3,59.97137593999668,2023-11-06 14h27.02.651266 +0100,
schlange2,3,1,49,3,,,,,302.61100675165653,,,,,,,,,,302.58212752081454,302.61100675165653,304.6142960861325,305.58100395835936,2.9994490277022123,306.4821988027543,"[0, -300]",[-0.025925925925925925],[-0.2351851851851852],[1],[0],[0],[0.9005699157714844],[1],['target_find'],306.4826635867357,307.49820144847035,,,,,,,,,,,,,,,,,,,,,,,,,,,,,,,,313766,001,2023-11-06_14h26.17.334,Selektive Wahrnehmung,2023.2.3,59.97137593999668,2023-11-06 14h27.02.651266 +0100,
gruppe1,3,2,50,6,,,,,307.5272581744939,,,,,,,,,,307.49863124638796,307.5272581744939,309.5309167187661,310.49843668565154,3.000387130305171,311.24894712492824,"[-300, 0]",[-0.21851851851851853],[-0.05925925925925926],[1],[0],[0],[0.7499085515737534],[1],['target_find'],311.2494377940893,312.2653266619891,,,,,,,,,,,,,,,,,,,,,,,,,,,,,,,,313766,001,2023-11-06_14h26.17.334,Selektive Wahrnehmung,2023.2.3,59.97137593999668,2023-11-06 14h27.02.651266 +0100,
spinne1,3,3,51,0,,,,,312.2901704572141,,,,,,,,,,312.2658363878727,312.2901704572141,314.2975962050259,315.265136083588,2.9999496545642614,316.08338420279324,"[-300, -300]",[-0.21203703703703702],[-0.16018518518518518],[1],[0],[0],[0.8176812194287777],[1],['target_find'],316.0838484186679,317.09850506670773,,,,,,,,,,,,,,,,,,,,,,,,,,,,,,,,313766,001,2023-11-06_14h26.17.334,Selektive Wahrnehmung,2023.2.3,59.97137593999668,2023-11-06 14h27.02.651266 +0100,
gruppe2,3,4,52,7,,,,,317.12802088819444,,,,,,,,,,317.09897781535983,317.12802088819444,319.1314959656447,320.1034652348608,3.005139084532857,320.9323251824826,"[0, -300]",[-0.000925925925925926],[-0.30092592592592593],[1],[0],[0],[0.8282136842608452],[1],['target_find'],320.9328744467348,321.94825415685773,,,,,,,,,,,,,,,,,,,,,,,,,,,,,,,,313766,001,2023-11-06_14h26.17.334,Selektive Wahrnehmung,2023.2.3,59.97137593999668,2023-11-06 14h27.02.651266 +0100,
gesicht4,3,5,53,11,,,,,321.97825495898724,,,,,,,,,,321.94865664839745,321.97825495898724,323.98117564991117,324.94758826866746,2.999410344287753,325.8991661760956,"[300, 300]",[0.17222222222222222],[0.22592592592592592],[1],[0],[0],[0.9510249458253384],[1],['target_find'],325.89973307587206,326.91508803889155,,,,,,,,,,,,,,,,,,,,,,,,,,,,,,,,313766,001,2023-11-06_14h26.17.334,Selektive Wahrnehmung,2023.2.3,59.97137593999668,2023-11-06 14h27.02.651266 +0100,
schlange1,3,6,54,2,,,,,326.9393137358129,,,,,,,,,,326.9155545309186,326.9393137358129,328.947857638821,329.9150550439954,3.0001277159899473,330.8665157593787,"[300, -300]",[0.3990740740740741],[-0.29814814814814816],[1],[0],[0],[0.950677065178752],[1],['target_find'],330.86727921292186,331.8817378859967,,,,,,,,,,,,,,,,,,,,,,,,,,,,,,,,313766,001,2023-11-06_14h26.17.334,Selektive Wahrnehmung,2023.2.3,59.97137593999668,2023-11-06 14h27.02.651266 +0100,
flugzeug1,3,7,55,13,,,,,331.91432174295187,,,,,,,,,,331.88214378990233,331.91432174295187,333.91444206237793,334.8812702577561,2.999676015228033,335.9158537685871,"[0, 300]",[-0.05555555555555555],[0.19444444444444445],[1],[0],[0],[1.0339497663080692],[1],['target_find'],335.91632594913244,336.9318891260773,,,,,,,,,,,,,,,,,,,,,,,,,,,,,,,,313766,001,2023-11-06_14h26.17.334,Selektive Wahrnehmung,2023.2.3,59.97137593999668,2023-11-06 14h27.02.651266 +0100,
person1,3,8,56,4,,,,,336.9552856609225,,,,,,,,,,336.932363582775,336.9552856609225,338.96438025310636,339.93122209981084,2.999453578144312,340.8175352998078,"[300, -300]",[0.23148148148148148],[-0.32037037037037036],[1],[0],[0],[0.8855309709906578],[1],['target_find'],340.8184091169387,341.831974061206,,,,,,,,,,,,,,,,,,,,,,,,,,,,,,,,313766,001,2023-11-06_14h26.17.334,Selektive Wahrnehmung,2023.2.3,59.97137593999668,2023-11-06 14h27.02.651266 +0100,
schiff1,3,9,57,14,,,,,341.86242912337184,,,,,,,,,,341.83246017992496,341.86242912337184,343.86458664759994,344.8312566895038,2.9994231425225735,345.7825737595558,"[-300, -300]",[-0.40555555555555556],[-0.2074074074074074],[1],[0],[0],[0.9507049415260553],[1],['target_find'],345.78304508700967,346.79864325001836,,,,,,,,,,,,,,,,,,,,,,,,,,,,,,,,313766,001,2023-11-06_14h26.17.334,Selektive Wahrnehmung,2023.2.3,59.97137593999668,2023-11-06 14h27.02.651266 +0100,
gesicht1,3,10,58,8,,,,,346.82724116556346,,,,,,,,,,346.799109172076,346.82724116556346,348.8312623780221,349.79802970029414,2.9995275363326073,350.5494540631771,"[300, 0]",[0.29259259259259257],[-0.03518518518518519],[1],[0],[0],[0.7507209274917841],[1],['target_find'],350.5500232409686,351.56553123518825,,,,,,,,,,,,,,,,,,,,,,,,,,,,,,,,313766,001,2023-11-06_14h26.17.334,Selektive Wahrnehmung,2023.2.3,59.97137593999668,2023-11-06 14h27.02.651266 +0100,
zug1,3,11,59,15,,,,,351.5958230253309,,,,,,,,,,351.5659852102399,351.5958230253309,353.59791085869074,354.58126451075077,2.9991506449878216,355.49926897510886,"[0, -300]",[0.005555555555555556],[-0.38333333333333336],[1],[0],[0],[0.9338401388376951],[1],['target_find'],355.49974143877625,356.5158026814461,,,,,,,,,,,,,,,,,,,,,,,,,,,,,,,,313766,001,2023-11-06_14h26.17.334,Selektive Wahrnehmung,2023.2.3,59.97137593999668,2023-11-06 14h27.02.651266 +0100,
auto1,3,12,60,12,,,,,356.549205172807,,,,,,,,,,356.5163792539388,356.549205172807,358.56458545289934,359.53138321079314,3.0157273039221764,360.5670911371708,"[0, 300]",[-0.009259259259259259],[0.2],[1],[0],[0],[1.03512111492455],[1],['target_find'],360.5675627477467,361.58199439942837,,,,,,,,,,,,,,,,,,,,,,,,,,,,,,,,313766,001,2023-11-06_14h26.17.334,Selektive Wahrnehmung,2023.2.3,59.97137593999668,2023-11-06 14h27.02.651266 +0100,
gesicht3,3,13,61,10,,,,,361.61256864480674,,,,,,,,,,361.582472268492,361.61256864480674,363.6147327106446,364.58138597011566,2.9995377752929926,365.4491982329637,"[0, 300]",[-0.001851851851851852],[0.20833333333333334],[1],[0],[0],[0.8672120831906796],[1],['target_find'],365.4497418086976,366.46533286198974,,,,,,,,,,,,,,,,,,,,,,,,,,,,,,,,313766,001,2023-11-06_14h26.17.334,Selektive Wahrnehmung,2023.2.3,59.97137593999668,2023-11-06 14h27.02.651266 +0100,
person2,3,14,62,5,,,,,366.4936238601804,,,,,,,,,,366.46581215411425,366.4936238601804,368.4980202578008,369.46560564637184,3.0004608016461134,370.76617687009275,"[300, -300]",[0.22407407407407406],[-0.3175925925925926],[1],[0],[0],[1.2998299580067396],[1],['target_find'],370.7667343840003,371.78218264505267,,,,,,,,,,,,,,,,,,,,,,,,,,,,,,,,313766,001,2023-11-06_14h26.17.334,Selektive Wahrnehmung,2023.2.3,59.97137593999668,2023-11-06 14h27.02.651266 +0100,
spinne2,3,15,63,1,,,,,372.0096091553569,,,,,,,,,,371.7826562486589,372.0096091553569,374.01445583067834,374.7986022904515,2.9992880299687386,375.7994180805981,"[300, 0]",[0.1824074074074074],[-0.025925925925925925],[1],[0],[0],[1.017208982259035],[1],['target_find'],375.79989993199706,376.8155410476029,,,,,,,,,,,,,,,,,,,,,,,,,,,,,,,,313766,001,2023-11-06_14h26.17.334,Selektive Wahrnehmung,2023.2.3,59.97137593999668,2023-11-06 14h27.02.651266 +0100,
flugzeug1,4,0,64,13,,,,,376.85030831210315,,,,,,,,,,376.816005833447,376.85030831210315,378.8648696709424,379.8148319236934,2.9994313921779394,382.482861276716,"[300, 300]",[0.2796296296296296],[0.24444444444444444],[1],[0],[0],[2.667414665222168],[1],['target_find'],382.4833283368498,383.4987672120333,,,,,,,,,,,,,,,,,,,,,,,,,,,,,,,,313766,001,2023-11-06_14h26.17.334,Selektive Wahrnehmung,2023.2.3,59.97137593999668,2023-11-06 14h27.02.651266 +0100,
person2,4,1,65,5,,,,,383.5281308554113,,,,,,,,,,383.4991856329143,383.5281308554113,385.5314247403294,386.49893759563565,3.0003527142107487,387.4662157818675,"[-300, -300]",[-0.24259259259259258],[-0.2851851851851852],[1],[0],[0],[0.9666074644774199],[1],['target_find'],387.4667283538729,388.48204690776765,,,,,,,,,,,,,,,,,,,,,,,,,,,,,,,,313766,001,2023-11-06_14h26.17.334,Selektive Wahrnehmung,2023.2.3,59.97137593999668,2023-11-06 14h27.02.651266 +0100,
schiff1,4,2,66,14,,,,,388.5100255832076,,,,,,,,,,388.4824639055878,388.5100255832076,390.5152989272028,391.4815698917955,2.9996635001152754,391.98325665667653,"[-300, -300]",[-0.24074074074074073],[-0.2796296296296296],[1],[0],[0],[0.5011187251657248],[1],['target_find'],391.9837331045419,392.9991409741342,,,,,,,,,,,,,,,,,,,,,,,,,,,,,,,,313766,001,2023-11-06_14h26.17.334,Selektive Wahrnehmung,2023.2.3,59.97137593999668,2023-11-06 14h27.02.651266 +0100,
gesicht2,4,3,67,9,,,,,393.0348250064999,,,,,,,,,,392.99973774142563,393.0348250064999,395.0480668209493,395.9980137143284,3.01558337174356,397.16590198129416,"[300, 0]",[0.26944444444444443],[0.024074074074074074],[1],[0],[0],[1.1507367435842752],[1],['target_find'],397.1663960646838,398.1824868898839,,,,,,,,,,,,,,,,,,,,,,,,,,,,,,,,313766,001,2023-11-06_14h26.17.334,Selektive Wahrnehmung,2023.2.3,59.97137593999668,2023-11-06 14h27.02.651266 +0100,
gruppe1,4,4,68,6,,,,,398.2058842778206,,,,,,,,,,398.18298182450235,398.2058842778206,400.214952416718,401.18172514252365,2.999390149489045,401.79957481101155,"[-300, 300]",[-0.29259259259259257],[0.29259259259259257],[1],[0],[0],[0.6172071043401957],[1],['target_find'],401.800051541999,402.81571256928146,,,,,,,,,,,,,,,,,,,,,,,,,,,,,,,,313766,001,2023-11-06_14h26.17.334,Selektive Wahrnehmung,2023.2.3,59.97137593999668,2023-11-06 14h27.02.651266 +0100,
auto1,4,5,69,12,,,,,402.8461519870907,,,,,,,,,,402.8161838967353,402.8461519870907,404.84830495901406,405.8149616327137,2.99936824478209,407.1166754756123,"[300, 300]",[0.31574074074074077],[0.30185185185185187],[1],[0],[0],[1.3011688459664583],[1],['target_find'],407.11715647391975,408.1322739254683,,,,,,,,,,,,,,,,,,,,,,,,,,,,,,,,313766,001,2023-11-06_14h26.17.334,Selektive Wahrnehmung,2023.2.3,59.97137593999668,2023-11-06 14h27.02.651266 +0100,
schlange1,4,6,70,2,,,,,408.1600569020957,,,,,,,,,,408.13279503025115,408.1600569020957,410.1648993100971,411.13181511312723,2.9997055996209383,412.01715664565563,"[-300, 300]",[-0.2814814814814815],[0.26481481481481484],[1],[0],[0],[0.8845610115677118],[1],['target_find'],412.01799832098186,413.031890662387,,,,,,,,,,,,,,,,,,,,,,,,,,,,,,,,313766,001,2023-11-06_14h26.17.334,Selektive Wahrnehmung,2023.2.3,59.97137593999668,2023-11-06 14h27.02.651266 +0100,
spinne2,4,7,71,1,,,,,413.213711662218,,,,,,,,,,413.03221493028104,413.213711662218,415.21505936793983,416.0314113702625,2.999615143984556,417.0330728199333,"[-300, -300]",[-0.24166666666666667],[-0.22870370370370371],[1],[0],[0],[1.0011150278151035],[1],['target_find'],417.0335555244237,418.04878362454474,,,,,,,,,,,,,,,,,,,,,,,,,,,,,,,,313766,001,2023-11-06_14h26.17.334,Selektive Wahrnehmung,2023.2.3,59.97137593999668,2023-11-06 14h27.02.651266 +0100,
schlange2,4,8,72,3,,,,,418.0722418855876,,,,,,,,,,418.0491144359112,418.0722418855876,420.08164595253766,421.0484374538064,2.999799180775881,421.99984042719007,"[300, 300]",[0.21666666666666667],[0.17314814814814813],[1],[0],[0],[0.9507370851933956],[1],['target_find'],422.0003504380584,423.0156706981361,,,,,,,,,,,,,,,,,,,,,,,,,,,,,,,,313766,001,2023-11-06_14h26.17.334,Selektive Wahrnehmung,2023.2.3,59.97137593999668,2023-11-06 14h27.02.651266 +0100,
gesicht3,4,9,73,10,,,,,423.0447740741074,,,,,,,,,,423.01607774198055,423.0447740741074,425.04867212101817,426.01699792407453,3.001535439863801,427.46634378284216,"[300, 300]",[0.17962962962962964],[0.23055555555555557],[1],[0],[0],[1.4486410021781921],[1],['target_find'],427.46681454218924,428.48333829268813,,,,,,,,,,,,,,,,,,,,,,,,,,,,,,,,313766,001,2023-11-06_14h26.17.334,Selektive Wahrnehmung,2023.2.3,59.97137593999668,2023-11-06 14h27.02.651266 +0100,
person1,4,10,74,4,,,,,428.52111783996224,,,,,,,,,,428.484199879691,428.52111783996224,430.5319634806365,431.4992661308497,3.0160754658281803,432.58365300484,"[-300, -300]",[-0.3138888888888889],[-0.23425925925925925],[1],[0],[0],[1.083794942125678],[1],['target_find'],432.5841544829309,433.5990079678595,,,,,,,,,,,,,,,,,,,,,,,,,,,,,,,,313766,001,2023-11-06_14h26.17.334,Selektive Wahrnehmung,2023.2.3,59.97137593999668,2023-11-06 14h27.02.651266 +0100,
spinne1,4,11,75,0,,,,,433.6290417648852,,,,,,,,,,433.5994150098413,433.6290417648852,435.6319140996784,436.5982120875269,2.999278360977769,437.7997972480953,"[0, -300]",[0.05925925925925926],[-0.27870370370370373],[1],[0],[0],[1.201063770800829],[1],['target_find'],437.8002668675035,438.8157321959734,,,,,,,,,,,,,,,,,,,,,,,,,,,,,,,,313766,001,2023-11-06_14h26.17.334,Selektive Wahrnehmung,2023.2.3,59.97137593999668,2023-11-06 14h27.02.651266 +0100,
gruppe2,4,12,76,7,,,,,438.84471439756453,,,,,,,,,,438.8161452114582,438.84471439756453,440.84873703308403,441.81500657461584,2.9993506111204624,442.83306519687176,"[300, -300]",[0.15925925925925927],[-0.2490740740740741],[1],[0],[0],[1.0175184588879347],[1],['target_find'],442.83354391902685,443.85004093311727,,,,,,,,,,,,,,,,,,,,,,,,,,,,,,,,313766,001,2023-11-06_14h26.17.334,Selektive Wahrnehmung,2023.2.3,59.97137593999668,2023-11-06 14h27.02.651266 +0100,
zug1,4,13,77,15,,,,,443.886757504195,,,,,,,,,,443.85088516771793,443.886757504195,445.89860354177654,446.86530828662217,3.015391942113638,448.13372630625963,"[0, 300]",[-0.09814814814814815],[0.33611111111111114],[1],[0],[0],[1.2677706200629473],[1],['target_find'],448.13422607816756,449.1493278834969,,,,,,,,,,,,,,,,,,,,,,,,,,,,,,,,313766,001,2023-11-06_14h26.17.334,Selektive Wahrnehmung,2023.2.3,59.97137593999668,2023-11-06 14h27.02.651266 +0100,
gesicht4,4,14,78,11,,,,,449.1806945949793,,,,,,,,,,449.1498046144843,449.1806945949793,451.18206505663693,452.1487507428974,2.9996054731309414,452.6165104974061,"[0, 300]",[-0.000925925925925926],[0.23703703703703705],[1],[0],[0],[0.4670699741691351],[1],['target_find'],452.61698296293616,453.6325998995453,,,,,,,,,,,,,,,,,,,,,,,,,,,,,,,,313766,001,2023-11-06_14h26.17.334,Selektive Wahrnehmung,2023.2.3,59.97137593999668,2023-11-06 14h27.02.651266 +0100,
gesicht1,4,15,79,8,,,,,453.6612029336393,,,,,,,,,,453.63309967145324,453.6612029336393,455.6652375161648,456.6316694766283,2.999143533408642,457.4005633741617,"[300, 300]",[0.1685185185185185],[0.24444444444444444],[1],[0],[0],[0.7682695388793945],[1],['target_find'],457.40114506706595,458.416043208912,,,,,,,,,,,,,,,,,,,,,,,,,,,,,,,,313766,001,2023-11-06_14h26.17.334,Selektive Wahrnehmung,2023.2.3,59.97137593999668,2023-11-06 14h27.02.651266 +0100,
,,,,,0,0,0,0,464.9577856566757,,,,,,,,,,,,,,,,,,,,,,,,,,,,458.4360818602145,462.016278559342,462.0163047295064,464.9162090420723,464.91707489453256,475.0383125990629,4.0,2.0,spinne2,,,,,,,,,,,,,,,,,,,,,,313766,001,2023-11-06_14h26.17.334,Selektive Wahrnehmung,2023.2.3,59.97137593999668,2023-11-06 14h27.02.651266 +0100,
,,,,,1,0,1,0,475.1498731672764,,,,,,,,,,,,,,,,,,,,,,,,,,,,,,,,475.0386667344719,479.9021204318851,4.0,1.0,gesicht4,,,,,,,,,,,,,,,,,,,,,,313766,001,2023-11-06_14h26.17.334,Selektive Wahrnehmung,2023.2.3,59.97137593999668,2023-11-06 14h27.02.651266 +0100,
,,,,,2,0,2,0,479.96968773007393,,,,,,,,,,,,,,,,,,,,,,,,,,,,,,,,479.90242962539196,486.7348027639091,1.0,5.0,auto1,,,,,,,,,,,,,,,,,,,,,,313766,001,2023-11-06_14h26.17.334,Selektive Wahrnehmung,2023.2.3,59.97137593999668,2023-11-06 14h27.02.651266 +0100,
,,,,,3,0,3,0,486.7676448971033,,,,,,,,,,,,,,,,,,,,,,,,,,,,,,,,486.73510968126357,493.0175506025553,1.0,3.0,schiff1,,,,,,,,,,,,,,,,,,,,,,313766,001,2023-11-06_14h26.17.334,Selektive Wahrnehmung,2023.2.3,59.97137593999668,2023-11-06 14h27.02.651266 +0100,
,,,,,4,0,4,0,493.050974143669,,,,,,,,,,,,,,,,,,,,,,,,,,,,,,,,493.01784585788846,497.8623295687139,2.0,1.0,schlange2,,,,,,,,,,,,,,,,,,,,,,313766,001,2023-11-06_14h26.17.334,Selektive Wahrnehmung,2023.2.3,59.97137593999668,2023-11-06 14h27.02.651266 +0100,
,,,,,,,,,,,,,,,,,,,,,,,,,,,,,,,,,,,,,,,,,,,,,,497.8669594954699,503.13543895445764,23,1.0,503.1354602891952,514.3803460914642,4.0,1.0,514.3804160654545,517.0500889476389,517.0501142628491,529.2173736207187,4.0,2.0,2.0,3.0,529.2174006421119,535.4793318714947,4.0,4.0,535.4793833568692,,,,,,,,
