Target,trials.thisRepN,trials.thisTrialN,trials.thisN,trials.thisIndex,trials_2.thisRepN,trials_2.thisTrialN,trials_2.thisN,trials_2.thisIndex,thisRow.t,notes,Data_transparency.started,key_resp_data_transp.started,Data_transparency.stopped,key_resp_data_transp.keys,key_resp_data_transp.rt,key_resp_data_transp.duration,instructions.started,instructions.stopped,trial.started,target_show.started,target_show.stopped,target_find.started,mouse.started,trial.stopped,target_position_x_y,mouse.x,mouse.y,mouse.leftButton,mouse.midButton,mouse.rightButton,mouse.time,mouse.corr,mouse.clicked_name,feedback.started,feedback.stopped,instructions_survey.started,instructions_survey.stopped,instructions_ratings.started,instructions_ratings.stopped,survey_ratings.started,survey_ratings.stopped,furcht.response,liebenswert.response,rated_image,survey_gen.started,survey_gen.stopped,age.text,gender.response,survey_games.started,survey_games.stopped,pc_frequency.response,reaction_games_frequency.response,instructions_neuro.started,instructions_neuro.stopped,survey_neuro.started,survey_neuro.stopped,neuro_1_rev.response,neuro_2.response,neuro_3.response,neuro_4_rev.response,survey_fear.started,survey_fear.stopped,specific_fear_spider.response,specific_fear_snake.response,thanks.started,thanks.stopped,participant,session,date,expName,psychopyVersion,frameRate,expStart,
,,,,,,,,,,,0.027294599916785955,0.043801499996334314,6.4436586000956595,z,6.388430300168693,None,,,,,,,,,,,,,,,,,,,,,,,,,,,,,,,,,,,,,,,,,,,,,,,,,,,321677,001,2023-11-06_13h59.41.308,Selektive Wahrnehmung,2023.2.3,60.46142948958053,2023-11-06 14h00.41.089803 +0100,
,,,,,,,,,,,,,,,,,6.443715299945325,34.75757980020717,,,,,,,,,,,,,,,,,,,,,,,,,,,,,,,,,,,,,,,,,,,,,,,,,321677,001,2023-11-06_13h59.41.308,Selektive Wahrnehmung,2023.2.3,60.46142948958053,2023-11-06 14h00.41.089803 +0100,
spinne1,0,0,0,0,,,,,34.89239649986848,,,,,,,,,,34.764737400226295,34.89239649986848,36.90712019987404,37.7724350001663,3.0149314999580383,38.70706330006942,"[300, 300]",[0.29259259259259257],[0.2796296296296296],[1],[0],[0],[0.9341174000874162],[1],['target_find'],38.70804509986192,39.72336860001087,,,,,,,,,,,,,,,,,,,,,,,,,,,,,,,,321677,001,2023-11-06_13h59.41.308,Selektive Wahrnehmung,2023.2.3,60.46142948958053,2023-11-06 14h00.41.089803 +0100,
gruppe1,0,1,1,6,,,,,39.75583600020036,,,,,,,,,,39.72395890019834,39.75583600020036,41.75571619998664,42.772484300192446,3.049199200235307,44.074537499807775,"[300, -300]",[0.19814814814814816],[-0.2740740740740741],[1],[0],[0],[1.3013230999931693],[1],['target_find'],44.07537449989468,45.090047399979085,,,,,,,,,,,,,,,,,,,,,,,,,,,,,,,,321677,001,2023-11-06_13h59.41.308,Selektive Wahrnehmung,2023.2.3,60.46142948958053,2023-11-06 14h00.41.089803 +0100,
flugzeug1,0,2,2,13,,,,,45.14222239982337,,,,,,,,,,45.090647799894214,45.14222239982337,47.15589320007712,48.12199700018391,3.0320946001447737,48.9752969997935,"[0, -300]",[-0.032407407407407406],[-0.2638888888888889],[1],[0],[0],[0.8523387000896037],[1],['target_find'],48.97658979985863,49.98963369987905,,,,,,,,,,,,,,,,,,,,,,,,,,,,,,,,321677,001,2023-11-06_13h59.41.308,Selektive Wahrnehmung,2023.2.3,60.46142948958053,2023-11-06 14h00.41.089803 +0100,
gesicht4,0,3,3,11,,,,,50.03869919991121,,,,,,,,,,49.99029739992693,50.03869919991121,52.038598500192165,53.0219895998016,2.9991536997258663,53.874181100167334,"[-300, 300]",[-0.3962962962962963],[0.32407407407407407],[1],[0],[0],[0.8841947000473738],[1],['target_find'],53.875313399825245,54.890884700231254,,,,,,,,,,,,,,,,,,,,,,,,,,,,,,,,321677,001,2023-11-06_13h59.41.308,Selektive Wahrnehmung,2023.2.3,60.46142948958053,2023-11-06 14h00.41.089803 +0100,
auto1,0,4,4,12,,,,,54.94146110024303,,,,,,,,,,54.89162060013041,54.94146110024303,56.955731300171465,57.93840100010857,3.047713799867779,59.10964269982651,"[300, 0]",[0.3212962962962963],[-0.004629629629629629],[1],[0],[0],[1.1701755002140999],[1],['target_find'],59.1110744997859,60.12260300014168,,,,,,,,,,,,,,,,,,,,,,,,,,,,,,,,321677,001,2023-11-06_13h59.41.308,Selektive Wahrnehmung,2023.2.3,60.46142948958053,2023-11-06 14h00.41.089803 +0100,
person1,0,5,5,4,,,,,60.23791400017217,,,,,,,,,,60.12331139994785,60.23791400017217,62.238051999825984,63.171453500166535,3.0490569001995027,63.9408690999262,"[-300, 0]",[-0.1824074074074074],[0.05925925925925926],[1],[0],[0],[0.7687411997467279],[1],['target_find'],63.941352900117636,64.95666579995304,,,,,,,,,,,,,,,,,,,,,,,,,,,,,,,,321677,001,2023-11-06_13h59.41.308,Selektive Wahrnehmung,2023.2.3,60.46142948958053,2023-11-06 14h00.41.089803 +0100,
schlange1,0,6,6,2,,,,,65.09094400005415,,,,,,,,,,64.9571020998992,65.09094400005415,67.10470589995384,68.00463260011747,3.0480514001101255,69.02491350006312,"[300, 300]",[0.2074074074074074],[0.20185185185185187],[1],[0],[0],[1.019324699882418],[1],['target_find'],69.02632419997826,70.03871570015326,,,,,,,,,,,,,,,,,,,,,,,,,,,,,,,,321677,001,2023-11-06_13h59.41.308,Selektive Wahrnehmung,2023.2.3,60.46142948958053,2023-11-06 14h00.41.089803 +0100,
gesicht2,0,7,7,9,,,,,70.08771840017289,,,,,,,,,,70.03930479986593,70.08771840017289,72.08776909997687,73.1208798000589,2.9990823003463447,73.79071989981458,"[-300, 300]",[-0.28703703703703703],[0.3574074074074074],[1],[0],[0],[0.7516418001614511],[1],['target_find'],73.79186489991844,74.80561720021069,,,,,,,,,,,,,,,,,,,,,,,,,,,,,,,,321677,001,2023-11-06_13h59.41.308,Selektive Wahrnehmung,2023.2.3,60.46142948958053,2023-11-06 14h00.41.089803 +0100,
schiff1,0,8,8,14,,,,,74.84063549991697,,,,,,,,,,74.80594399990514,74.84063549991697,76.8555677998811,77.82072000019252,3.0151881999336183,78.9070314001292,"[-300, -300]",[-0.31851851851851853],[-0.23981481481481481],[1],[0],[0],[1.0858295001089573],[1],['target_find'],78.90756120020524,79.92126759979874,,,,,,,,,,,,,,,,,,,,,,,,,,,,,,,,321677,001,2023-11-06_13h59.41.308,Selektive Wahrnehmung,2023.2.3,60.46142948958053,2023-11-06 14h00.41.089803 +0100,
spinne2,0,9,9,1,,,,,80.12058690004051,,,,,,,,,,79.9217578000389,80.12058690004051,82.12071090005338,82.95389770017937,3.0327238999307156,83.83881859993562,"[0, 300]",[-0.046296296296296294],[0.30648148148148147],[1],[0],[0],[0.8843149002641439],[1],['target_find'],83.83962049987167,84.85499959997833,,,,,,,,,,,,,,,,,,,,,,,,,,,,,,,,321677,001,2023-11-06_13h59.41.308,Selektive Wahrnehmung,2023.2.3,60.46142948958053,2023-11-06 14h00.41.089803 +0100,
schlange2,0,10,10,3,,,,,84.93826820002869,,,,,,,,,,84.85559190018103,84.93826820002869,86.93833609996364,87.92031450010836,3.065388100221753,89.49059840012342,"[0, -300]",[0.044444444444444446],[-0.262037037037037],[1],[0],[0],[1.5694947000592947],[1],['target_find'],89.49175379984081,90.50430339993909,,,,,,,,,,,,,,,,,,,,,,,,,,,,,,,,321677,001,2023-11-06_13h59.41.308,Selektive Wahrnehmung,2023.2.3,60.46142948958053,2023-11-06 14h00.41.089803 +0100,
zug1,0,11,11,15,,,,,90.5401850999333,,,,,,,,,,90.50473230006173,90.5401850999333,92.55426800018176,93.51981779979542,3.0156760001555085,94.47292539989576,"[300, 300]",[0.29444444444444445],[0.3212962962962963],[1],[0],[0],[0.9521685000509024],[1],['target_find'],94.47408130019903,95.4874860001728,,,,,,,,,,,,,,,,,,,,,,,,,,,,,,,,321677,001,2023-11-06_13h59.41.308,Selektive Wahrnehmung,2023.2.3,60.46142948958053,2023-11-06 14h00.41.089803 +0100,
gesicht1,0,12,12,8,,,,,95.5367077998817,,,,,,,,,,95.48798550013453,95.5367077998817,97.53669340023771,98.51990990014747,2.999228000175208,99.15515819983557,"[-300, 300]",[-0.35185185185185186],[0.4111111111111111],[1],[0],[0],[0.6673322999849916],[1],['target_find'],99.1563137001358,100.17166789993644,,,,,,,,,,,,,,,,,,,,,,,,,,,,,,,,321677,001,2023-11-06_13h59.41.308,Selektive Wahrnehmung,2023.2.3,60.46142948958053,2023-11-06 14h00.41.089803 +0100,
gruppe2,0,13,13,7,,,,,100.22295679990202,,,,,,,,,,100.17215250013396,100.22295679990202,102.23778809979558,103.2030524997972,3.0314656998962164,104.62257150001824,"[300, 0]",[0.2851851851851852],[-0.02962962962962963],[1],[0],[0],[1.4187165000475943],[1],['target_find'],104.62370660016313,105.6375829000026,,,,,,,,,,,,,,,,,,,,,,,,,,,,,,,,321677,001,2023-11-06_13h59.41.308,Selektive Wahrnehmung,2023.2.3,60.46142948958053,2023-11-06 14h00.41.089803 +0100,
gesicht3,0,14,14,10,,,,,105.68613970000297,,,,,,,,,,105.63831989979371,105.68613970000297,107.68618449987844,108.669202900026,3.0316858999431133,109.40759269986302,"[300, 300]",[0.31203703703703706],[0.3314814814814815],[1],[0],[0],[0.7374752000905573],[1],['target_find'],109.40910950023681,110.42109340010211,,,,,,,,,,,,,,,,,,,,,,,,,,,,,,,,321677,001,2023-11-06_13h59.41.308,Selektive Wahrnehmung,2023.2.3,60.46142948958053,2023-11-06 14h00.41.089803 +0100,
person2,0,15,15,5,,,,,110.47242859983817,,,,,,,,,,110.42170670023188,110.47242859983817,112.4871856002137,113.43565700016916,3.014626099728048,114.11999869998544,"[300, 300]",[0.2861111111111111],[0.2222222222222222],[1],[0],[0],[0.683859399985522],[1],['target_find'],114.12049110000953,115.13693970022723,,,,,,,,,,,,,,,,,,,,,,,,,,,,,,,,321677,001,2023-11-06_13h59.41.308,Selektive Wahrnehmung,2023.2.3,60.46142948958053,2023-11-06 14h00.41.089803 +0100,
flugzeug1,1,0,16,13,,,,,115.18557460000739,,,,,,,,,,115.13769889995456,115.18557460000739,117.18573379982263,118.16893600020558,3.032063600141555,119.17020179983228,"[300, -300]",[0.35648148148148145],[-0.23148148148148148],[1],[0],[0],[1.0007746000774205],[1],['target_find'],119.17067860020325,120.18777179997414,,,,,,,,,,,,,,,,,,,,,,,,,,,,,,,,321677,001,2023-11-06_13h59.41.308,Selektive Wahrnehmung,2023.2.3,60.46142948958053,2023-11-06 14h00.41.089803 +0100,
auto1,1,1,17,12,,,,,120.23850410012528,,,,,,,,,,120.18830650020391,120.23850410012528,122.2533742999658,123.23550890013576,2.999186299741268,123.954733800143,"[-300, 300]",[-0.2564814814814815],[0.18518518518518517],[1],[0],[0],[0.7665709001012146],[1],['target_find'],123.95586819993332,124.96928079985082,,,,,,,,,,,,,,,,,,,,,,,,,,,,,,,,321677,001,2023-11-06_13h59.41.308,Selektive Wahrnehmung,2023.2.3,60.46142948958053,2023-11-06 14h00.41.089803 +0100,
schlange1,1,2,18,2,,,,,125.01887270016596,,,,,,,,,,124.96970439981669,125.01887270016596,127.01862009987235,127.98508200002834,3.01586510008201,128.62078170012683,"[0, -300]",[0.07407407407407407],[-0.2861111111111111],[1],[0],[0],[0.6349967997521162],[1],['target_find'],128.6216688998975,129.63614040007815,,,,,,,,,,,,,,,,,,,,,,,,,,,,,,,,321677,001,2023-11-06_13h59.41.308,Selektive Wahrnehmung,2023.2.3,60.46142948958053,2023-11-06 14h00.41.089803 +0100,
gesicht2,1,3,19,9,,,,,129.68805400002748,,,,,,,,,,129.636690299958,129.68805400002748,131.70310800010338,132.65153930010274,3.015592699870467,133.238514599856,"[300, 300]",[0.30185185185185187],[0.3314814814814815],[1],[0],[0],[0.5859350003302097],[1],['target_find'],133.23983390023932,134.25246649980545,,,,,,,,,,,,,,,,,,,,,,,,,,,,,,,,321677,001,2023-11-06_13h59.41.308,Selektive Wahrnehmung,2023.2.3,60.46142948958053,2023-11-06 14h00.41.089803 +0100,
gruppe1,1,4,20,6,,,,,134.3016579002142,,,,,,,,,,134.25297129992396,134.3016579002142,136.30151360016316,137.28468469996005,2.999149600043893,138.05429620016366,"[300, 0]",[0.262037037037037],[-0.05],[1],[0],[0],[0.8015852998942137],[1],['target_find'],138.0554311000742,139.06903349980712,,,,,,,,,,,,,,,,,,,,,,,,,,,,,,,,321677,001,2023-11-06_13h59.41.308,Selektive Wahrnehmung,2023.2.3,60.46142948958053,2023-11-06 14h00.41.089803 +0100,
gruppe2,1,5,21,7,,,,,139.10434990003705,,,,,,,,,,139.0694435997866,139.10434990003705,141.119183300063,142.101463700179,3.032669600099325,142.9871354000643,"[300, -300]",[0.30277777777777776],[-0.3685185185185185],[1],[0],[0],[0.8846352999098599],[1],['target_find'],142.9882030999288,144.00203560013324,,,,,,,,,,,,,,,,,,,,,,,,,,,,,,,,321677,001,2023-11-06_13h59.41.308,Selektive Wahrnehmung,2023.2.3,60.46142948958053,2023-11-06 14h00.41.089803 +0100,
person1,1,6,22,4,,,,,144.05115680024028,,,,,,,,,,144.0025379001163,144.05115680024028,146.05117030022666,147.03441209997982,2.999024299904704,147.73723969981074,"[-300, 300]",[-0.1675925925925926],[0.18333333333333332],[1],[0],[0],[0.7349882000125945],[1],['target_find'],147.73861860018224,148.75176250003278,,,,,,,,,,,,,,,,,,,,,,,,,,,,,,,,321677,001,2023-11-06_13h59.41.308,Selektive Wahrnehmung,2023.2.3,60.46142948958053,2023-11-06 14h00.41.089803 +0100,
person2,1,7,23,5,,,,,148.78739830013365,,,,,,,,,,148.75202970020473,148.78739830013365,150.80202559987083,151.76873209979385,3.0170863000676036,152.6206403998658,"[300, -300]",[0.28425925925925927],[-0.2574074074074074],[1],[0],[0],[0.850959500297904],[1],['target_find'],152.6220296001993,153.635350599885,,,,,,,,,,,,,,,,,,,,,,,,,,,,,,,,321677,001,2023-11-06_13h59.41.308,Selektive Wahrnehmung,2023.2.3,60.46142948958053,2023-11-06 14h00.41.089803 +0100,
gesicht1,1,8,24,8,,,,,153.68405129993334,,,,,,,,,,153.63610060000792,153.68405129993334,155.6840769997798,156.6673988001421,3.0321293002925813,157.4383193999529,"[0, 300]",[0.058333333333333334],[0.19722222222222222],[1],[0],[0],[0.7700208998285234],[1],['target_find'],157.4394343001768,158.45114499982446,,,,,,,,,,,,,,,,,,,,,,,,,,,,,,,,321677,001,2023-11-06_13h59.41.308,Selektive Wahrnehmung,2023.2.3,60.46142948958053,2023-11-06 14h00.41.089803 +0100,
schiff1,1,9,25,14,,,,,158.48394999979064,,,,,,,,,,158.45163210015744,158.48394999979064,160.4851088002324,161.46722339978442,3.0163020002655685,162.40325410012156,"[-300, 300]",[-0.30092592592592593],[0.35],[1],[0],[0],[0.9349068002775311],[1],['target_find'],162.40452439989895,163.4180876999162,,,,,,,,,,,,,,,,,,,,,,,,,,,,,,,,321677,001,2023-11-06_13h59.41.308,Selektive Wahrnehmung,2023.2.3,60.46142948958053,2023-11-06 14h00.41.089803 +0100,
gesicht4,1,10,26,11,,,,,163.46681369980797,,,,,,,,,,163.4186919000931,163.46681369980797,165.46695479983464,166.44990999996662,3.0318853999488056,167.03652739990503,"[0, 300]",[0.026851851851851852],[0.3277777777777778],[1],[0],[0],[0.5859205997548997],[1],['target_find'],167.0374972000718,168.05163920018822,,,,,,,,,,,,,,,,,,,,,,,,,,,,,,,,321677,001,2023-11-06_13h59.41.308,Selektive Wahrnehmung,2023.2.3,60.46142948958053,2023-11-06 14h00.41.089803 +0100,
spinne1,1,11,27,0,,,,,168.1032588998787,,,,,,,,,,168.0522282999009,168.1032588998787,170.11736280005425,171.0835249000229,3.0320950001478195,172.06990560004488,"[0, -300]",[-0.012962962962962963],[-0.4101851851851852],[1],[0],[0],[0.985262000001967],[1],['target_find'],172.071191099938,173.08422640012577,,,,,,,,,,,,,,,,,,,,,,,,,,,,,,,,321677,001,2023-11-06_13h59.41.308,Selektive Wahrnehmung,2023.2.3,60.46142948958053,2023-11-06 14h00.41.089803 +0100,
gesicht3,1,12,28,10,,,,,173.13324450002983,,,,,,,,,,173.08481290005147,173.13324450002983,175.13314749998972,176.11634959978983,2.999030000064522,176.93566069984809,"[-300, -300]",[-0.34074074074074073],[-0.2111111111111111],[1],[0],[0],[0.8513112999498844],[1],['target_find'],176.9366272999905,177.95087089994922,,,,,,,,,,,,,,,,,,,,,,,,,,,,,,,,321677,001,2023-11-06_13h59.41.308,Selektive Wahrnehmung,2023.2.3,60.46142948958053,2023-11-06 14h00.41.089803 +0100,
spinne2,1,13,29,1,,,,,178.2330040000379,,,,,,,,,,177.95129559980705,178.2330040000379,180.2338240002282,180.98310789978132,3.0324467001482844,181.66910709999502,"[0, -300]",[0.014814814814814815],[-0.4027777777777778],[1],[0],[0],[0.685041599906981],[1],['target_find'],181.67026360007003,182.6835703002289,,,,,,,,,,,,,,,,,,,,,,,,,,,,,,,,321677,001,2023-11-06_13h59.41.308,Selektive Wahrnehmung,2023.2.3,60.46142948958053,2023-11-06 14h00.41.089803 +0100,
zug1,1,14,30,15,,,,,182.7328765001148,,,,,,,,,,182.6840450000018,182.7328765001148,184.7326993001625,185.74928259989247,3.0657906997948885,186.95177800022066,"[300, 0]",[0.25833333333333336],[0.03611111111111111],[1],[0],[0],[1.2017800998874009],[1],['target_find'],186.9527499000542,187.96657110005617,,,,,,,,,,,,,,,,,,,,,,,,,,,,,,,,321677,001,2023-11-06_13h59.41.308,Selektive Wahrnehmung,2023.2.3,60.46142948958053,2023-11-06 14h00.41.089803 +0100,
schlange2,1,15,31,3,,,,,188.00236980011687,,,,,,,,,,187.96695679984987,188.00236980011687,190.0170122999698,190.98222459992394,3.0157184996642172,191.8851294000633,"[300, 300]",[0.29259259259259257],[0.24814814814814815],[1],[0],[0],[0.9021023996174335],[1],['target_find'],191.88627150002867,192.9002650999464,,,,,,,,,,,,,,,,,,,,,,,,,,,,,,,,321677,001,2023-11-06_13h59.41.308,Selektive Wahrnehmung,2023.2.3,60.46142948958053,2023-11-06 14h00.41.089803 +0100,
person1,2,0,32,4,,,,,192.9490581001155,,,,,,,,,,192.90103270020336,192.9490581001155,194.94884139997885,195.93195889983326,3.0317354002036154,196.9179535000585,"[0, -300]",[0.012962962962962963],[-0.3],[1],[0],[0],[0.9853105000220239],[1],['target_find'],196.91886459989473,197.93446649983525,,,,,,,,,,,,,,,,,,,,,,,,,,,,,,,,321677,001,2023-11-06_13h59.41.308,Selektive Wahrnehmung,2023.2.3,60.46142948958053,2023-11-06 14h00.41.089803 +0100,
schiff1,2,1,33,14,,,,,197.9852112000808,,,,,,,,,,197.93503260007128,197.9852112000808,200.00003040023148,200.9832664001733,2.999056200031191,201.95201750006527,"[300, 300]",[0.21944444444444444],[0.2324074074074074],[1],[0],[0],[1.0172345000319183],[1],['target_find'],201.95307999989018,202.96652769995853,,,,,,,,,,,,,,,,,,,,,,,,,,,,,,,,321677,001,2023-11-06_13h59.41.308,Selektive Wahrnehmung,2023.2.3,60.46142948958053,2023-11-06 14h00.41.089803 +0100,
gesicht2,2,2,34,9,,,,,203.01833389978856,,,,,,,,,,202.96728909993544,203.01833389978856,205.0325727998279,205.9817384001799,3.0152909997850657,206.81725249998271,"[300, -300]",[0.387037037037037],[-0.4074074074074074],[1],[0],[0],[0.8347350000403821],[1],['target_find'],206.81822649994865,207.83272380009294,,,,,,,,,,,,,,,,,,,,,,,,,,,,,,,,321677,001,2023-11-06_13h59.41.308,Selektive Wahrnehmung,2023.2.3,60.46142948958053,2023-11-06 14h00.41.089803 +0100,
flugzeug1,2,3,35,13,,,,,207.88175110006705,,,,,,,,,,207.83332990016788,207.88175110006705,209.881675099954,210.88173480005935,2.9990237997844815,211.83404969982803,"[300, -300]",[0.22314814814814815],[-0.29444444444444445],[1],[0],[0],[1.0010605999268591],[1],['target_find'],211.83510769996792,212.8502917001024,,,,,,,,,,,,,,,,,,,,,,,,,,,,,,,,321677,001,2023-11-06_13h59.41.308,Selektive Wahrnehmung,2023.2.3,60.46142948958053,2023-11-06 14h00.41.089803 +0100,
gesicht3,2,4,36,10,,,,,212.8845089999959,,,,,,,,,,212.85079389996827,212.8845089999959,214.8993863002397,215.86478690011427,3.0146018001250923,216.56729369983077,"[0, 300]",[0.020370370370370372],[0.2796296296296296],[1],[0],[0],[0.7015072000212967],[1],['target_find'],216.5681845000945,217.5823134998791,,,,,,,,,,,,,,,,,,,,,,,,,,,,,,,,321677,001,2023-11-06_13h59.41.308,Selektive Wahrnehmung,2023.2.3,60.46142948958053,2023-11-06 14h00.41.089803 +0100,
auto1,2,5,37,12,,,,,217.61459509981796,,,,,,,,,,217.58291660016403,217.61459509981796,219.61469889990985,220.61421380005777,3.0319546996615827,221.56560860015452,"[300, 300]",[0.2601851851851852],[0.3416666666666667],[1],[0],[0],[0.9508861000649631],[1],['target_find'],221.56612320011482,222.58335260022432,,,,,,,,,,,,,,,,,,,,,,,,,,,,,,,,321677,001,2023-11-06_13h59.41.308,Selektive Wahrnehmung,2023.2.3,60.46142948958053,2023-11-06 14h00.41.089803 +0100,
gruppe2,2,6,38,7,,,,,222.63250420009717,,,,,,,,,,222.5839363001287,222.63250420009717,224.6322037000209,225.6310129999183,3.0477518001571298,227.60002369992435,"[300, -300]",[0.32037037037037036],[-0.26851851851851855],[1],[0],[0],[1.9682400999590755],[1],['target_find'],227.60098050022498,228.61500799981877,,,,,,,,,,,,,,,,,,,,,,,,,,,,,,,,321677,001,2023-11-06_13h59.41.308,Selektive Wahrnehmung,2023.2.3,60.46142948958053,2023-11-06 14h00.41.089803 +0100,
schlange1,2,7,39,2,,,,,228.64744159998372,,,,,,,,,,228.6154963998124,228.64744159998372,230.64737330004573,231.6473083999008,3.0323752001859248,232.3984916000627,"[300, 0]",[0.25925925925925924],[-0.04722222222222222],[1],[0],[0],[0.7506953999400139],[1],['target_find'],232.39901689998806,233.4152605999261,,,,,,,,,,,,,,,,,,,,,,,,,,,,,,,,321677,001,2023-11-06_13h59.41.308,Selektive Wahrnehmung,2023.2.3,60.46142948958053,2023-11-06 14h00.41.089803 +0100,
spinne2,2,8,40,1,,,,,233.66383819980547,,,,,,,,,,233.4159909998998,233.66383819980547,235.66386729991063,236.46376059995964,3.0485744997859,237.63293399987742,"[0, 300]",[-0.01574074074074074],[0.30092592592592593],[1],[0],[0],[1.1683562998659909],[1],['target_find'],237.6340641998686,238.64781160000712,,,,,,,,,,,,,,,,,,,,,,,,,,,,,,,,321677,001,2023-11-06_13h59.41.308,Selektive Wahrnehmung,2023.2.3,60.46142948958053,2023-11-06 14h00.41.089803 +0100,
gesicht1,2,9,41,8,,,,,238.71490010013804,,,,,,,,,,238.64830160001293,238.71490010013804,240.7133160000667,241.71478930022568,3.067066099960357,242.48504030006006,"[-300, 300]",[-0.2898148148148148],[0.3101851851851852],[1],[0],[0],[0.7692908998578787],[1],['target_find'],242.4864325998351,243.4977734000422,,,,,,,,,,,,,,,,,,,,,,,,,,,,,,,,321677,001,2023-11-06_13h59.41.308,Selektive Wahrnehmung,2023.2.3,60.46142948958053,2023-11-06 14h00.41.089803 +0100,
spinne1,2,10,42,0,,,,,243.55013220012188,,,,,,,,,,243.49826119979843,243.55013220012188,245.5635557002388,246.51325079984963,3.015542599838227,247.4841570998542,"[0, -300]",[-0.06018518518518518],[-0.2064814814814815],[1],[0],[0],[0.9700517999008298],[1],['target_find'],247.48536759987473,248.49733160017058,,,,,,,,,,,,,,,,,,,,,,,,,,,,,,,,321677,001,2023-11-06_13h59.41.308,Selektive Wahrnehmung,2023.2.3,60.46142948958053,2023-11-06 14h00.41.089803 +0100,
person2,2,11,43,5,,,,,248.5465012001805,,,,,,,,,,248.4978180998005,248.5465012001805,250.5466243000701,251.51322859991342,3.0162659999914467,252.09865259984508,"[300, 300]",[0.19166666666666668],[0.24444444444444444],[1],[0],[0],[0.5843625999987125],[1],['target_find'],252.09952779999003,253.1140363002196,,,,,,,,,,,,,,,,,,,,,,,,,,,,,,,,321677,001,2023-11-06_13h59.41.308,Selektive Wahrnehmung,2023.2.3,60.46142948958053,2023-11-06 14h00.41.089803 +0100,
gruppe1,2,12,44,6,,,,,253.16604059981182,,,,,,,,,,253.11458310019225,253.16604059981182,255.1806550999172,256.12943209987134,3.0155270001851022,256.84962320001796,"[-300, 0]",[-0.3175925925925926],[0.011111111111111112],[1],[0],[0],[0.7190700997598469],[1],['target_find'],256.85115210013464,257.8636087998748,,,,,,,,,,,,,,,,,,,,,,,,,,,,,,,,321677,001,2023-11-06_13h59.41.308,Selektive Wahrnehmung,2023.2.3,60.46142948958053,2023-11-06 14h00.41.089803 +0100,
gesicht4,2,13,45,11,,,,,257.8962348001078,,,,,,,,,,257.8640947001986,257.8962348001078,259.89619110012427,260.87949580000713,3.0161151001229882,261.73191000008956,"[300, -300]",[0.19722222222222222],[-0.2490740740740741],[1],[0],[0],[0.8513795998878777],[1],['target_find'],261.73305709986016,262.74709019996226,,,,,,,,,,,,,,,,,,,,,,,,,,,,,,,,321677,001,2023-11-06_13h59.41.308,Selektive Wahrnehmung,2023.2.3,60.46142948958053,2023-11-06 14h00.41.089803 +0100,
schlange2,2,14,46,3,,,,,262.78259220020846,,,,,,,,,,262.7473546001129,262.78259220020846,264.7972651999444,265.76264900015667,3.0156474001705647,267.89916370017454,"[300, 0]",[0.24259259259259258],[-0.04537037037037037],[1],[0],[0],[2.1355854999274015],[1],['target_find'],267.9006571001373,268.91357049997896,,,,,,,,,,,,,,,,,,,,,,,,,,,,,,,,321677,001,2023-11-06_13h59.41.308,Selektive Wahrnehmung,2023.2.3,60.46142948958053,2023-11-06 14h00.41.089803 +0100,
zug1,2,15,47,15,,,,,268.96233450016007,,,,,,,,,,268.91431669984013,268.96233450016007,270.9623619997874,271.94559680018574,3.03219940001145,272.9651037999429,"[-300, 0]",[-0.21388888888888888],[-0.021296296296296296],[1],[0],[0],[1.0185257997363806],[1],['target_find'],272.9662577002309,273.97968959994614,,,,,,,,,,,,,,,,,,,,,,,,,,,,,,,,321677,001,2023-11-06_13h59.41.308,Selektive Wahrnehmung,2023.2.3,60.46142948958053,2023-11-06 14h00.41.089803 +0100,
schlange1,3,0,48,2,,,,,274.0121527002193,,,,,,,,,,273.9802013002336,274.0121527002193,276.01209039986134,276.9951177998446,3.0156157999299467,278.54748630011454,"[-300, 0]",[-0.30185185185185187],[-0.09074074074074075],[1],[0],[0],[1.5514548001810908],[1],['target_find'],278.54844640009105,279.56281699985266,,,,,,,,,,,,,,,,,,,,,,,,,,,,,,,,321677,001,2023-11-06_13h59.41.308,Selektive Wahrnehmung,2023.2.3,60.46142948958053,2023-11-06 14h00.41.089803 +0100,
spinne2,3,1,49,1,,,,,279.76189900003374,,,,,,,,,,279.5634025000036,279.76189900003374,281.76181000005454,282.59521479997784,3.0324725001119077,283.34770220005885,"[0, 300]",[0.004629629629629629],[0.26666666666666666],[1],[0],[0],[0.7516351998783648],[1],['target_find'],283.34883570019156,284.3625476998277,,,,,,,,,,,,,,,,,,,,,,,,,,,,,,,,321677,001,2023-11-06_13h59.41.308,Selektive Wahrnehmung,2023.2.3,60.46142948958053,2023-11-06 14h00.41.089803 +0100,
zug1,3,2,50,15,,,,,284.42838580021635,,,,,,,,,,284.36304689990357,284.42838580021635,286.42963430006057,287.4294762001373,3.0670082001015544,288.09656199999154,"[-300, 300]",[-0.20185185185185187],[0.2324074074074074],[1],[0],[0],[0.6665254002436996],[1],['target_find'],288.09717349987477,289.1120939999819,,,,,,,,,,,,,,,,,,,,,,,,,,,,,,,,321677,001,2023-11-06_13h59.41.308,Selektive Wahrnehmung,2023.2.3,60.46142948958053,2023-11-06 14h00.41.089803 +0100,
gruppe1,3,3,51,6,,,,,289.1444880999625,,,,,,,,,,289.11247539985925,289.1444880999625,291.14471590006724,292.1280110999942,3.0160019998438656,292.89675780013204,"[300, 300]",[0.19537037037037036],[0.26851851851851855],[1],[0],[0],[0.7680000998079777],[1],['target_find'],292.89765760023147,293.9122228999622,,,,,,,,,,,,,,,,,,,,,,,,,,,,,,,,321677,001,2023-11-06_13h59.41.308,Selektive Wahrnehmung,2023.2.3,60.46142948958053,2023-11-06 14h00.41.089803 +0100,
flugzeug1,3,4,52,13,,,,,293.96458509983495,,,,,,,,,,293.912722799927,293.96458509983495,295.9792471001856,296.9279931001365,3.0158599000424147,298.16290770005435,"[300, -300]",[0.2851851851851852],[-0.3527777777777778],[1],[0],[0],[1.2343796999193728],[1],['target_find'],298.16342130023986,299.1790070999414,,,,,,,,,,,,,,,,,,,,,,,,,,,,,,,,321677,001,2023-11-06_13h59.41.308,Selektive Wahrnehmung,2023.2.3,60.46142948958053,2023-11-06 14h00.41.089803 +0100,
gesicht2,3,5,53,9,,,,,299.22763480013236,,,,,,,,,,299.1797417998314,299.22763480013236,301.2277037999593,302.22758980002254,3.0486647002398968,302.76220660004765,"[300, 0]",[0.2222222222222222],[-0.06111111111111111],[1],[0],[0],[0.534028900321573],[1],['target_find'],302.76272560004145,303.7783435001038,,,,,,,,,,,,,,,,,,,,,,,,,,,,,,,,321677,001,2023-11-06_13h59.41.308,Selektive Wahrnehmung,2023.2.3,60.46142948958053,2023-11-06 14h00.41.089803 +0100,
schiff1,3,6,54,14,,,,,303.830548199825,,,,,,,,,,303.77884889999405,303.830548199825,305.844099199865,306.79404099984095,3.0157925998792052,307.39637580001727,"[0, 300]",[-0.017592592592592594],[0.30277777777777776],[1],[0],[0],[0.601655500009656],[1],['target_find'],307.397144400049,308.4114164998755,,,,,,,,,,,,,,,,,,,,,,,,,,,,,,,,321677,001,2023-11-06_13h59.41.308,Selektive Wahrnehmung,2023.2.3,60.46142948958053,2023-11-06 14h00.41.089803 +0100,
gruppe2,3,7,55,7,,,,,308.4606762002222,,,,,,,,,,308.41191260004416,308.4606762002222,310.46065230015665,311.42730059986934,3.0159656000323594,312.34715140005574,"[300, 300]",[0.22685185185185186],[0.3055555555555556],[1],[0],[0],[0.9194126999936998],[1],['target_find'],312.34766069985926,313.3624720000662,,,,,,,,,,,,,,,,,,,,,,,,,,,,,,,,321677,001,2023-11-06_13h59.41.308,Selektive Wahrnehmung,2023.2.3,60.46142948958053,2023-11-06 14h00.41.089803 +0100,
auto1,3,8,56,12,,,,,313.397039799951,,,,,,,,,,313.36322120018303,313.397039799951,315.4116173000075,316.376675600186,3.0142526999115944,317.44690850004554,"[-300, 300]",[-0.22962962962962963],[0.22314814814814815],[1],[0],[0],[1.0694342995993793],[1],['target_find'],317.44801389984787,318.4609330999665,,,,,,,,,,,,,,,,,,,,,,,,,,,,,,,,321677,001,2023-11-06_13h59.41.308,Selektive Wahrnehmung,2023.2.3,60.46142948958053,2023-11-06 14h00.41.089803 +0100,
spinne1,3,9,57,0,,,,,318.51031839987263,,,,,,,,,,318.46142299985513,318.51031839987263,320.51011720020324,321.47653390001506,3.0156604000367224,322.51413219980896,"[300, -300]",[0.2777777777777778],[-0.3055555555555556],[1],[0],[0],[1.0365691999904811],[1],['target_find'],322.515511599835,323.5276533002034,,,,,,,,,,,,,,,,,,,,,,,,,,,,,,,,321677,001,2023-11-06_13h59.41.308,Selektive Wahrnehmung,2023.2.3,60.46142948958053,2023-11-06 14h00.41.089803 +0100,
gesicht3,3,10,58,10,,,,,323.5797732998617,,,,,,,,,,323.52812879998237,323.5797732998617,325.59392159990966,326.5599302002229,3.032471399754286,327.5124546000734,"[-300, 300]",[-0.35555555555555557],[0.37037037037037035],[1],[0],[0],[0.9515962000004947],[1],['target_find'],327.5134414001368,328.52714810008183,,,,,,,,,,,,,,,,,,,,,,,,,,,,,,,,321677,001,2023-11-06_13h59.41.308,Selektive Wahrnehmung,2023.2.3,60.46142948958053,2023-11-06 14h00.41.089803 +0100,
person1,3,11,59,4,,,,,328.5764242000878,,,,,,,,,,328.52757439995185,328.5764242000878,330.5763798998669,331.54311480000615,3.016057699918747,332.4123766999692,"[0, -300]",[0.024074074074074074],[-0.2657407407407407],[1],[0],[0],[0.8684585001319647],[1],['target_find'],332.41351789981127,333.4285450000316,,,,,,,,,,,,,,,,,,,,,,,,,,,,,,,,321677,001,2023-11-06_13h59.41.308,Selektive Wahrnehmung,2023.2.3,60.46142948958053,2023-11-06 14h00.41.089803 +0100,
person2,3,12,60,5,,,,,333.4792373999953,,,,,,,,,,333.42912440001965,333.4792373999953,335.4939382998273,336.45967070013285,2.999032599851489,337.3285715999082,"[-300, 300]",[-0.36574074074074076],[0.35833333333333334],[1],[0],[0],[0.899902599863708],[1],['target_find'],337.329656700138,338.34371840022504,,,,,,,,,,,,,,,,,,,,,,,,,,,,,,,,321677,001,2023-11-06_13h59.41.308,Selektive Wahrnehmung,2023.2.3,60.46142948958053,2023-11-06 14h00.41.089803 +0100,
gesicht4,3,13,61,11,,,,,338.3928261999972,,,,,,,,,,338.34430739982054,338.3928261999972,340.39258879981935,341.37584490003064,3.0322019001469016,341.97902829991654,"[-300, 300]",[-0.24351851851851852],[0.26944444444444443],[1],[0],[0],[0.6027186000719666],[1],['target_find'],341.9795511998236,342.9945984999649,,,,,,,,,,,,,,,,,,,,,,,,,,,,,,,,321677,001,2023-11-06_13h59.41.308,Selektive Wahrnehmung,2023.2.3,60.46142948958053,2023-11-06 14h00.41.089803 +0100,
gesicht1,3,14,62,8,,,,,343.04555330006406,,,,,,,,,,342.9951042998582,343.04555330006406,345.0594883002341,346.02549989987165,2.9993297001346946,346.7438432998024,"[-300, 300]",[-0.17962962962962964],[0.2222222222222222],[1],[0],[0],[0.7488823998719454],[1],['target_find'],346.74435060005635,347.75980510003865,,,,,,,,,,,,,,,,,,,,,,,,,,,,,,,,321677,001,2023-11-06_13h59.41.308,Selektive Wahrnehmung,2023.2.3,60.46142948958053,2023-11-06 14h00.41.089803 +0100,
schlange2,3,15,63,3,,,,,347.808988600038,,,,,,,,,,347.7603823998943,347.808988600038,349.8088516998105,350.7922097998671,3.0325952996499836,351.9101328002289,"[300, -300]",[0.3490740740740741],[-0.2601851851851852],[1],[0],[0],[1.1172198997810483],[1],['target_find'],351.91065909992903,352.927928800229,,,,,,,,,,,,,,,,,,,,,,,,,,,,,,,,321677,001,2023-11-06_13h59.41.308,Selektive Wahrnehmung,2023.2.3,60.46142948958053,2023-11-06 14h00.41.089803 +0100,
gruppe1,4,0,64,6,,,,,352.9784153997898,,,,,,,,,,352.9286746000871,352.9784153997898,354.9934212001972,355.9583793999627,3.03049990022555,356.9109646999277,"[-300, -300]",[-0.2361111111111111],[-0.20092592592592592],[1],[0],[0],[0.9519458999857306],[1],['target_find'],356.9117352999747,357.92625379981473,,,,,,,,,,,,,,,,,,,,,,,,,,,,,,,,321677,001,2023-11-06_13h59.41.308,Selektive Wahrnehmung,2023.2.3,60.46142948958053,2023-11-06 14h00.41.089803 +0100,
spinne1,4,1,65,0,,,,,357.97504740022123,,,,,,,,,,357.92695420002565,357.97504740022123,359.975027800072,360.9583609998226,3.0321786999702454,361.977459799964,"[300, -300]",[0.3574074074074074],[-0.3175925925925926],[1],[0],[0],[1.0182930999435484],[1],['target_find'],361.9786105998792,362.9926367998123,,,,,,,,,,,,,,,,,,,,,,,,,,,,,,,,321677,001,2023-11-06_13h59.41.308,Selektive Wahrnehmung,2023.2.3,60.46142948958053,2023-11-06 14h00.41.089803 +0100,
schiff1,4,2,66,14,,,,,363.0260649002157,,,,,,,,,,362.99328050017357,363.0260649002157,365.025107299909,366.0079660001211,3.0153782996349037,366.844106500037,"[-300, -300]",[-0.2361111111111111],[-0.2814814814814815],[1],[0],[0],[0.8356475001201034],[1],['target_find'],366.844608400017,367.858439499978,,,,,,,,,,,,,,,,,,,,,,,,,,,,,,,,321677,001,2023-11-06_13h59.41.308,Selektive Wahrnehmung,2023.2.3,60.46142948958053,2023-11-06 14h00.41.089803 +0100,
person1,4,3,67,4,,,,,367.89130070013925,,,,,,,,,,367.8588903998025,367.89130070013925,369.8913687001914,370.87473470019177,3.0163765996694565,371.64389130007476,"[-300, -300]",[-0.29259259259259257],[-0.26851851851851855],[1],[0],[0],[0.7683876003138721],[1],['target_find'],371.64496950013563,372.660116400104,,,,,,,,,,,,,,,,,,,,,,,,,,,,,,,,321677,001,2023-11-06_13h59.41.308,Selektive Wahrnehmung,2023.2.3,60.46142948958053,2023-11-06 14h00.41.089803 +0100,
gesicht2,4,4,68,9,,,,,372.71063899993896,,,,,,,,,,372.6607177001424,372.71063899993896,374.72533710021526,375.69097030023113,2.9990334999747574,376.62733200006187,"[300, 300]",[0.2574074074074074],[0.3398148148148148],[1],[0],[0],[0.9672718001529574],[1],['target_find'],376.62816119985655,377.6422851001844,,,,,,,,,,,,,,,,,,,,,,,,,,,,,,,,321677,001,2023-11-06_13h59.41.308,Selektive Wahrnehmung,2023.2.3,60.46142948958053,2023-11-06 14h00.41.089803 +0100,
auto1,4,5,69,12,,,,,377.6911308998242,,,,,,,,,,377.6430362001993,377.6911308998242,379.69086269987747,380.6741430000402,3.0319332000799477,381.5926756002009,"[300, -300]",[0.24166666666666667],[-0.2935185185185185],[1],[0],[0],[0.9178470000624657],[1],['target_find'],381.59351160004735,382.60991590004414,,,,,,,,,,,,,,,,,,,,,,,,,,,,,,,,321677,001,2023-11-06_13h59.41.308,Selektive Wahrnehmung,2023.2.3,60.46142948958053,2023-11-06 14h00.41.089803 +0100,
person2,4,6,70,5,,,,,382.6603651000187,,,,,,,,,,382.61065649986267,382.6603651000187,384.67490629991516,385.6405946998857,3.0307598002254963,386.208799299784,"[-300, 0]",[-0.337037037037037],[-0.001851851851851852],[1],[0],[0],[0.567620299756527],[1],['target_find'],386.2094494998455,387.2262504999526,,,,,,,,,,,,,,,,,,,,,,,,,,,,,,,,321677,001,2023-11-06_13h59.41.308,Selektive Wahrnehmung,2023.2.3,60.46142948958053,2023-11-06 14h00.41.089803 +0100,
schlange2,4,7,71,3,,,,,387.2603243999183,,,,,,,,,,387.22688010009006,387.2603243999183,389.27515649981797,390.25693430006504,3.030733000021428,391.30936030019075,"[-300, -300]",[-0.23148148148148148],[-0.24351851851851852],[1],[0],[0],[1.0517906001769006],[1],['target_find'],391.3102082000114,392.3244000999257,,,,,,,,,,,,,,,,,,,,,,,,,,,,,,,,321677,001,2023-11-06_13h59.41.308,Selektive Wahrnehmung,2023.2.3,60.46142948958053,2023-11-06 14h00.41.089803 +0100,
gesicht1,4,8,72,8,,,,,392.37363609997556,,,,,,,,,,392.3249042998068,392.37363609997556,394.3736262000166,395.33996259979904,3.015620300080627,396.0926736998372,"[0, -300]",[-0.10555555555555556],[-0.21481481481481482],[1],[0],[0],[0.7519800001755357],[1],['target_find'],396.0937159000896,397.1087905000895,,,,,,,,,,,,,,,,,,,,,,,,,,,,,,,,321677,001,2023-11-06_13h59.41.308,Selektive Wahrnehmung,2023.2.3,60.46142948958053,2023-11-06 14h00.41.089803 +0100,
gesicht3,4,9,73,10,,,,,397.1598474998027,,,,,,,,,,397.1093751001172,397.1598474998027,399.1747094998136,400.1231321999803,3.0143971000798047,400.8769312999211,"[300, 300]",[0.262037037037037],[0.20277777777777778],[1],[0],[0],[0.7528607998974621],[1],['target_find'],400.8782958998345,401.890824300237,,,,,,,,,,,,,,,,,,,,,,,,,,,,,,,,321677,001,2023-11-06_13h59.41.308,Selektive Wahrnehmung,2023.2.3,60.46142948958053,2023-11-06 14h00.41.089803 +0100,
gruppe2,4,10,74,7,,,,,401.93990779994056,,,,,,,,,,401.89134670002386,401.93990779994056,403.93985660001636,404.9229736002162,2.9991729999892414,405.94212380005047,"[-300, 0]",[-0.3074074074074074],[-0.04537037037037037],[1],[0],[0],[1.050976499915123],[1],['target_find'],405.943091200199,406.95844580000266,,,,,,,,,,,,,,,,,,,,,,,,,,,,,,,,321677,001,2023-11-06_13h59.41.308,Selektive Wahrnehmung,2023.2.3,60.46142948958053,2023-11-06 14h00.41.089803 +0100,
zug1,4,11,75,15,,,,,407.00952540012076,,,,,,,,,,406.95893529988825,407.00952540012076,409.02423729980364,409.9728728001937,3.014505499973893,410.3743090000935,"[0, -300]",[0.000925925925925926],[0.22592592592592592],[1],[0],[0],[0.4008589000441134],[0],['dis2'],410.37500320002437,411.39081079978496,,,,,,,,,,,,,,,,,,,,,,,,,,,,,,,,321677,001,2023-11-06_13h59.41.308,Selektive Wahrnehmung,2023.2.3,60.46142948958053,2023-11-06 14h00.41.089803 +0100,
flugzeug1,4,12,76,13,,,,,411.43912489991635,,,,,,,,,,411.3915482000448,411.43912489991635,413.43934000004083,414.4227570001967,3.032017200253904,415.241871799808,"[-300, 300]",[-0.2101851851851852],[0.25462962962962965],[1],[0],[0],[0.8182799997739494],[1],['target_find'],415.24292350001633,416.25791299995035,,,,,,,,,,,,,,,,,,,,,,,,,,,,,,,,321677,001,2023-11-06_13h59.41.308,Selektive Wahrnehmung,2023.2.3,60.46142948958053,2023-11-06 14h00.41.089803 +0100,
schlange1,4,13,77,2,,,,,416.30909480014816,,,,,,,,,,416.2584041999653,416.30909480014816,418.32386140013114,419.2891290001571,3.0312968003563583,420.05861670011654,"[0, 300]",[0.03888888888888889],[0.22870370370370371],[1],[0],[0],[0.768577900249511],[1],['target_find'],420.0601119999774,421.07331119989976,,,,,,,,,,,,,,,,,,,,,,,,,,,,,,,,321677,001,2023-11-06_13h59.41.308,Selektive Wahrnehmung,2023.2.3,60.46142948958053,2023-11-06 14h00.41.089803 +0100,
spinne2,4,14,78,1,,,,,421.27228419994935,,,,,,,,,,421.07389859994873,421.27228419994935,423.2722654999234,424.1057722000405,3.032671900000423,424.95856390008703,"[0, -300]",[0.044444444444444446],[-0.25],[1],[0],[0],[0.8518020999617875],[1],['target_find'],424.9596397001296,425.97399740014225,,,,,,,,,,,,,,,,,,,,,,,,,,,,,,,,321677,001,2023-11-06_13h59.41.308,Selektive Wahrnehmung,2023.2.3,60.46142948958053,2023-11-06 14h00.41.089803 +0100,
gesicht4,4,15,79,11,,,,,426.05695459991693,,,,,,,,,,425.9747251998633,426.05695459991693,428.07342169992626,429.03883749991655,3.064927499741316,430.0249939998612,"[300, 300]",[0.19074074074074074],[0.23148148148148148],[1],[0],[0],[0.9853307995945215],[1],['target_find'],430.0261614001356,431.0406951000914,,,,,,,,,,,,,,,,,,,,,,,,,,,,,,,,321677,001,2023-11-06_13h59.41.308,Selektive Wahrnehmung,2023.2.3,60.46142948958053,2023-11-06 14h00.41.089803 +0100,
,,,,,0,0,0,0,436.1414752001874,,,,,,,,,,,,,,,,,,,,,,,,,,,431.06578710023314,433.9073835997842,433.9074125001207,436.0742756999098,436.0753895002417,451.1464650002308,4.0,2.0,person2,,,,,,,,,,,,,,,,,,,,,,,321677,001,2023-11-06_13h59.41.308,Selektive Wahrnehmung,2023.2.3,60.46142948958053,2023-11-06 14h00.41.089803 +0100,
,,,,,1,0,1,0,451.19033569982275,,,,,,,,,,,,,,,,,,,,,,,,,,,,,,,451.1468454999849,458.3961495999247,1.0,4.0,spinne1,,,,,,,,,,,,,,,,,,,,,,,321677,001,2023-11-06_13h59.41.308,Selektive Wahrnehmung,2023.2.3,60.46142948958053,2023-11-06 14h00.41.089803 +0100,
,,,,,2,0,2,0,458.44035180006176,,,,,,,,,,,,,,,,,,,,,,,,,,,,,,,458.3964682999067,469.44466410018504,4.0,2.0,gesicht1,,,,,,,,,,,,,,,,,,,,,,,321677,001,2023-11-06_13h59.41.308,Selektive Wahrnehmung,2023.2.3,60.46142948958053,2023-11-06 14h00.41.089803 +0100,
,,,,,3,0,3,0,469.4897413002327,,,,,,,,,,,,,,,,,,,,,,,,,,,,,,,469.4449455998838,475.561071800068,1.0,5.0,gesicht4,,,,,,,,,,,,,,,,,,,,,,,321677,001,2023-11-06_13h59.41.308,Selektive Wahrnehmung,2023.2.3,60.46142948958053,2023-11-06 14h00.41.089803 +0100,
,,,,,4,0,4,0,475.6060509001836,,,,,,,,,,,,,,,,,,,,,,,,,,,,,,,475.56136000016704,482.7775508002378,1.0,5.0,gesicht2,,,,,,,,,,,,,,,,,,,,,,,321677,001,2023-11-06_13h59.41.308,Selektive Wahrnehmung,2023.2.3,60.46142948958053,2023-11-06 14h00.41.089803 +0100,
,,,,,,,,,,,,,,,,,,,,,,,,,,,,,,,,,,,,,,,,,,,,,482.7816392001696,492.7559337001294,19,1.0,492.7559560998343,513.5269150999375,3.0,2.0,513.526936000213,518.9876525998116,518.9876953000203,563.9957857001573,2.0,3.0,4.0,3.0,563.9958151001483,574.2575938999653,2.0,2.0,574.2576152998954,607.7665371000767,,,,,,,,
