Target,trials.thisRepN,trials.thisTrialN,trials.thisN,trials.thisIndex,trials_2.thisRepN,trials_2.thisTrialN,trials_2.thisN,trials_2.thisIndex,thisRow.t,notes,Data_transparency.started,key_resp_data_transp.started,Data_transparency.stopped,key_resp_data_transp.keys,key_resp_data_transp.rt,key_resp_data_transp.duration,instructions.started,instructions.stopped,trial.started,target_show.started,target_show.stopped,target_find.started,mouse.started,trial.stopped,target_position_x_y,mouse.x,mouse.y,mouse.leftButton,mouse.midButton,mouse.rightButton,mouse.time,mouse.corr,mouse.clicked_name,feedback.started,feedback.stopped,instructions_survey.started,instructions_survey.stopped,instructions_ratings.started,instructions_ratings.stopped,survey_ratings.started,survey_ratings.stopped,furcht.response,liebenswert.response,rated_image,survey_gen.started,survey_gen.stopped,age.text,gender.response,survey_games.started,survey_games.stopped,pc_frequency.response,reaction_games_frequency.response,instructions_neuro.started,instructions_neuro.stopped,survey_neuro.started,survey_neuro.stopped,neuro_1_rev.response,neuro_2.response,neuro_3.response,neuro_4_rev.response,survey_fear.started,survey_fear.stopped,specific_fear_spider.response,specific_fear_snake.response,thanks.started,thanks.stopped,participant,session,date,expName,psychopyVersion,frameRate,expStart,
,,,,,,,,,,,0.013065400067716837,0.02787490002810955,57.526525400113314,z,57.492630399763584,None,,,,,,,,,,,,,,,,,,,,,,,,,,,,,,,,,,,,,,,,,,,,,,,,,,,322916,001,2023-11-13_13h16.03.318,Selektive Wahrnehmung,2023.2.3,59.95958712600038,2023-11-13 13h28.24.434804 +0100,
,,,,,,,,,,,,,,,,,57.52660480001941,62.70945730013773,,,,,,,,,,,,,,,,,,,,,,,,,,,,,,,,,,,,,,,,,,,,,,,,,322916,001,2023-11-13_13h16.03.318,Selektive Wahrnehmung,2023.2.3,59.95958712600038,2023-11-13 13h28.24.434804 +0100,
gesicht3,0,0,0,10,,,,,62.77687769988552,,,,,,,,,,62.72610830003396,62.77687769988552,64.79154150001705,65.72357070026919,3.014256200287491,66.79454819997773,"[-300, 300]",[-0.42407407407407405],[0.22037037037037038],[1],[0],[0],[1.0698537998832762],[],[],66.79774409998208,67.80736239999533,,,,,,,,,,,,,,,,,,,,,,,,,,,,,,,,322916,001,2023-11-13_13h16.03.318,Selektive Wahrnehmung,2023.2.3,59.95958712600038,2023-11-13 13h28.24.434804 +0100,
gruppe1,0,1,1,6,,,,,67.8402652000077,,,,,,,,,,67.8076479001902,67.8402652000077,69.84026279998943,70.82330750022084,3.016016500070691,71.87713380018249,"[0, -300]",[0.024074074074074074],[-0.27870370370370373],[1],[0],[0],[1.0531851998530328],[1],['target_find'],71.87798959994689,72.89217130001634,,,,,,,,,,,,,,,,,,,,,,,,,,,,,,,,322916,001,2023-11-13_13h16.03.318,Selektive Wahrnehmung,2023.2.3,59.95958712600038,2023-11-13 13h28.24.434804 +0100,
gesicht1,0,2,2,8,,,,,73.00981090031564,,,,,,,,,,72.89280749997124,73.00981090031564,75.02354709990323,75.93976530013606,3.047646400053054,76.97485530003905,"[300, 300]",[0.15185185185185185],[0.29259259259259257],[1],[0],[0],[1.0345518998801708],[1],['target_find'],76.97540110023692,77.99079059995711,,,,,,,,,,,,,,,,,,,,,,,,,,,,,,,,322916,001,2023-11-13_13h16.03.318,Selektive Wahrnehmung,2023.2.3,59.95958712600038,2023-11-13 13h28.24.434804 +0100,
spinne2,0,3,3,1,,,,,78.20641499990597,,,,,,,,,,77.99136399989948,78.20641499990597,80.20641480013728,81.05618489999324,3.065585599746555,81.99099500011653,"[0, 300]",[-0.058333333333333334],[0.25555555555555554],[1],[0],[0],[0.9341234001331031],[1],['target_find'],81.99153569992632,83.00736179994419,,,,,,,,,,,,,,,,,,,,,,,,,,,,,,,,322916,001,2023-11-13_13h16.03.318,Selektive Wahrnehmung,2023.2.3,59.95958712600038,2023-11-13 13h28.24.434804 +0100,
schlange1,0,4,4,2,,,,,83.07271469989792,,,,,,,,,,83.00805919989944,83.07271469989792,85.07292800024152,86.07264900021255,3.0653428002260625,86.65897350013256,"[-300, 0]",[-0.17777777777777778],[-0.03888888888888889],[1],[0],[0],[0.5855133002623916],[1],['target_find'],86.66020999988541,87.67408020002767,,,,,,,,,,,,,,,,,,,,,,,,,,,,,,,,322916,001,2023-11-13_13h16.03.318,Selektive Wahrnehmung,2023.2.3,59.95958712600038,2023-11-13 13h28.24.434804 +0100,
auto1,0,5,5,12,,,,,87.72270489996299,,,,,,,,,,87.67483180016279,87.72270489996299,89.72393879992887,90.6890576002188,3.0150158000178635,91.32347030006349,"[0, -300]",[0.000925925925925926],[-0.22870370370370371],[1],[0],[0],[0.6339941998012364],[1],['target_find'],91.32396179996431,92.34002450015396,,,,,,,,,,,,,,,,,,,,,,,,,,,,,,,,322916,001,2023-11-13_13h16.03.318,Selektive Wahrnehmung,2023.2.3,59.95958712600038,2023-11-13 13h28.24.434804 +0100,
gesicht4,0,6,6,11,,,,,92.38924820022658,,,,,,,,,,92.3405233998783,92.38924820022658,94.38922289991751,95.37236629985273,2.999011999927461,96.0580766000785,"[0, 300]",[-0.07685185185185185],[0.21666666666666667],[1],[0],[0],[0.7181014996021986],[1],['target_find'],96.05924850003794,97.07491760002449,,,,,,,,,,,,,,,,,,,,,,,,,,,,,,,,322916,001,2023-11-13_13h16.03.318,Selektive Wahrnehmung,2023.2.3,59.95958712600038,2023-11-13 13h28.24.434804 +0100,
person1,0,7,7,4,,,,,97.12570980004966,,,,,,,,,,97.07567760022357,97.12570980004966,99.13898769998923,100.10532360011712,3.0304543003439903,101.04123019985855,"[300, 300]",[0.13518518518518519],[0.31203703703703706],[1],[0],[0],[0.9352571000345051],[0],['dis5'],101.04210820002481,102.05680780019611,,,,,,,,,,,,,,,,,,,,,,,,,,,,,,,,322916,001,2023-11-13_13h16.03.318,Selektive Wahrnehmung,2023.2.3,59.95958712600038,2023-11-13 13h28.24.434804 +0100,
schiff1,0,8,8,14,,,,,102.10536500019953,,,,,,,,,,102.05756080010906,102.10536500019953,104.10546550014988,105.08843549992889,3.0316797997802496,106.22580230003223,"[-300, 0]",[-0.18703703703703703],[-0.0712962962962963],[1],[0],[0],[1.1365781002677977],[1],['target_find'],106.2269605002366,107.24056990025565,,,,,,,,,,,,,,,,,,,,,,,,,,,,,,,,322916,001,2023-11-13_13h16.03.318,Selektive Wahrnehmung,2023.2.3,59.95958712600038,2023-11-13 13h28.24.434804 +0100,
gruppe2,0,9,9,7,,,,,107.29148120013997,,,,,,,,,,107.24111599987373,107.29148120013997,109.30488019995391,110.25528819998726,3.0147825996391475,111.52280610008165,"[-300, -300]",[-0.3435185185185185],[-0.35555555555555557],[1],[0],[0],[1.2670748997479677],[1],['target_find'],111.5232973000966,112.53915950004011,,,,,,,,,,,,,,,,,,,,,,,,,,,,,,,,322916,001,2023-11-13_13h16.03.318,Selektive Wahrnehmung,2023.2.3,59.95958712600038,2023-11-13 13h28.24.434804 +0100,
schlange2,0,10,10,3,,,,,112.57162669999525,,,,,,,,,,112.53965840023011,112.57162669999525,114.57160759996623,115.55489049991593,3.0158138000406325,117.30628270003945,"[300, -300]",[0.21388888888888888],[-0.19166666666666668],[1],[0],[0],[1.7508574998937547],[1],['target_find'],117.30680909985676,118.32173069985583,,,,,,,,,,,,,,,,,,,,,,,,,,,,,,,,322916,001,2023-11-13_13h16.03.318,Selektive Wahrnehmung,2023.2.3,59.95958712600038,2023-11-13 13h28.24.434804 +0100,
zug1,0,11,11,15,,,,,118.35463210009038,,,,,,,,,,118.32197940023616,118.35463210009038,120.35456999996677,121.33772680023685,3.0160980001091957,123.97467530006543,"[0, -300]",[-0.14907407407407408],[-0.1388888888888889],[1],[0],[0],[2.636121999938041],[0],['dis3'],123.97582839988172,124.98900210019201,,,,,,,,,,,,,,,,,,,,,,,,,,,,,,,,322916,001,2023-11-13_13h16.03.318,Selektive Wahrnehmung,2023.2.3,59.95958712600038,2023-11-13 13h28.24.434804 +0100,
person2,0,12,12,5,,,,,125.03793810028583,,,,,,,,,,124.98977319989353,125.03793810028583,127.03771230019629,128.0210707001388,3.0322696999646723,129.02253640023991,"[300, -300]",[0.2212962962962963],[-0.2101851851851852],[1],[0],[0],[1.0007481998763978],[1],['target_find'],129.02304390026256,130.03908789996058,,,,,,,,,,,,,,,,,,,,,,,,,,,,,,,,322916,001,2023-11-13_13h16.03.318,Selektive Wahrnehmung,2023.2.3,59.95958712600038,2023-11-13 13h28.24.434804 +0100,
gesicht2,0,13,13,9,,,,,130.09050759999081,,,,,,,,,,130.03983370028436,130.09050759999081,132.1042857002467,133.070766299963,3.0317504997365177,133.73948890017346,"[-300, 0]",[-0.15462962962962962],[-0.013888888888888888],[1],[0],[0],[0.6682314001955092],[1],['target_find'],133.73998710000888,134.755223300308,,,,,,,,,,,,,,,,,,,,,,,,,,,,,,,,322916,001,2023-11-13_13h16.03.318,Selektive Wahrnehmung,2023.2.3,59.95958712600038,2023-11-13 13h28.24.434804 +0100,
flugzeug1,0,14,14,13,,,,,134.80403680028394,,,,,,,,,,134.75602409988642,134.80403680028394,136.80365059990436,137.78720939997584,3.032059599645436,138.42401120020077,"[300, 0]",[0.22777777777777777],[-0.026851851851851852],[1],[0],[0],[0.635822799988091],[1],['target_find'],138.42534389998764,139.43945389986038,,,,,,,,,,,,,,,,,,,,,,,,,,,,,,,,322916,001,2023-11-13_13h16.03.318,Selektive Wahrnehmung,2023.2.3,59.95958712600038,2023-11-13 13h28.24.434804 +0100,
spinne1,0,15,15,0,,,,,139.47172340005636,,,,,,,,,,139.4400490000844,139.47172340005636,141.47162700025365,142.47053400008008,2.999032400082797,143.4716765000485,"[0, 300]",[0.2916666666666667],[0.35833333333333334],[1],[0],[0],[1.0322914998978376],[0],['dis4'],143.47216479992494,144.48806450003758,,,,,,,,,,,,,,,,,,,,,,,,,,,,,,,,322916,001,2023-11-13_13h16.03.318,Selektive Wahrnehmung,2023.2.3,59.95958712600038,2023-11-13 13h28.24.434804 +0100,
flugzeug1,1,0,16,13,,,,,144.5368647002615,,,,,,,,,,144.4888412002474,144.5368647002615,146.53672500001267,147.52024280000478,3.0322582996450365,149.22143239993602,"[0, -300]",[-0.007407407407407408],[-0.1527777777777778],[1],[0],[0],[1.7006616001017392],[1],['target_find'],149.22195729985833,150.23772750003263,,,,,,,,,,,,,,,,,,,,,,,,,,,,,,,,322916,001,2023-11-13_13h16.03.318,Selektive Wahrnehmung,2023.2.3,59.95958712600038,2023-11-13 13h28.24.434804 +0100,
person2,1,1,17,5,,,,,150.28666510013863,,,,,,,,,,150.2383224000223,150.28666510013863,152.2866090000607,153.26960249990225,3.031931099947542,153.97117310017347,"[300, 0]",[0.1638888888888889],[-0.012962962962962963],[1],[0],[0],[0.7010141997598112],[1],['target_find'],153.97174060018733,154.9888917999342,,,,,,,,,,,,,,,,,,,,,,,,,,,,,,,,322916,001,2023-11-13_13h16.03.318,Selektive Wahrnehmung,2023.2.3,59.95958712600038,2023-11-13 13h28.24.434804 +0100,
gruppe1,1,2,18,6,,,,,155.03937450004742,,,,,,,,,,154.98967120004818,155.03937450004742,157.05341550009325,158.01957949995995,3.0307645997963846,158.8388713002205,"[-300, -300]",[-0.1962962962962963],[-0.25092592592592594],[1],[0],[0],[0.8187695001251996],[1],['target_find'],158.83940150029957,159.85395770007744,,,,,,,,,,,,,,,,,,,,,,,,,,,,,,,,322916,001,2023-11-13_13h16.03.318,Selektive Wahrnehmung,2023.2.3,59.95958712600038,2023-11-13 13h28.24.434804 +0100,
gesicht3,1,3,19,10,,,,,159.90289090014994,,,,,,,,,,159.854542999994,159.90289090014994,161.90289530018345,162.88626069994643,3.0324349999427795,163.92101760022342,"[300, 0]",[0.19444444444444445],[-0.05925925925925926],[1],[0],[0],[1.034133699722588],[1],['target_find'],163.92154090013355,164.93687380012125,,,,,,,,,,,,,,,,,,,,,,,,,,,,,,,,322916,001,2023-11-13_13h16.03.318,Selektive Wahrnehmung,2023.2.3,59.95958712600038,2023-11-13 13h28.24.434804 +0100,
schiff1,1,4,20,14,,,,,164.97265180014074,,,,,,,,,,164.93719860026613,164.97265180014074,166.98735370021313,167.9525415999815,3.0157546000555158,169.28942180005834,"[300, 300]",[0.19537037037037036],[0.21666666666666667],[1],[0],[0],[1.3360640997998416],[1],['target_find'],169.29049730021507,170.3034974001348,,,,,,,,,,,,,,,,,,,,,,,,,,,,,,,,322916,001,2023-11-13_13h16.03.318,Selektive Wahrnehmung,2023.2.3,59.95958712600038,2023-11-13 13h28.24.434804 +0100,
gesicht4,1,5,21,11,,,,,170.35248599993065,,,,,,,,,,170.3040912002325,170.35248599993065,172.35208170022815,173.33540019998327,3.0319580999203026,174.13942210003734,"[-300, 0]",[-0.17314814814814813],[-0.008333333333333333],[1],[0],[0],[0.8032122999429703],[1],['target_find'],174.1405263999477,175.15389980003238,,,,,,,,,,,,,,,,,,,,,,,,,,,,,,,,322916,001,2023-11-13_13h16.03.318,Selektive Wahrnehmung,2023.2.3,59.95958712600038,2023-11-13 13h28.24.434804 +0100,
schlange2,1,6,22,3,,,,,175.18869630014524,,,,,,,,,,175.15446180012077,175.18869630014524,177.20226019993424,178.16883330000564,3.015013199765235,178.85536060016602,"[300, -300]",[0.2953703703703704],[-0.2564814814814815],[1],[0],[0],[0.6858319002203643],[1],['target_find'],178.85632969997823,179.86970950011164,,,,,,,,,,,,,,,,,,,,,,,,,,,,,,,,322916,001,2023-11-13_13h16.03.318,Selektive Wahrnehmung,2023.2.3,59.95958712600038,2023-11-13 13h28.24.434804 +0100,
gruppe2,1,7,23,7,,,,,179.91876879986376,,,,,,,,,,179.87029890017584,179.91876879986376,181.91858489997685,182.90204840013757,2.999115299899131,183.75434600003064,"[0, 300]",[0.09537037037037037],[0.4],[1],[0],[0],[0.8843971001915634],[1],['target_find'],183.75538810016587,184.77010009996593,,,,,,,,,,,,,,,,,,,,,,,,,,,,,,,,322916,001,2023-11-13_13h16.03.318,Selektive Wahrnehmung,2023.2.3,59.95958712600038,2023-11-13 13h28.24.434804 +0100,
spinne1,1,8,24,0,,,,,184.82144349999726,,,,,,,,,,184.7707111001946,184.82144349999726,186.8360947999172,187.78492690017447,3.014881500042975,188.66954510007054,"[0, -300]",[0.11944444444444445],[-0.26296296296296295],[1],[0],[0],[0.884144099894911],[1],['target_find'],188.67003280017525,189.68611170025542,,,,,,,,,,,,,,,,,,,,,,,,,,,,,,,,322916,001,2023-11-13_13h16.03.318,Selektive Wahrnehmung,2023.2.3,59.95958712600038,2023-11-13 13h28.24.434804 +0100,
gesicht2,1,9,25,9,,,,,189.71816889988258,,,,,,,,,,189.68686849996448,189.71816889988258,191.71817720029503,192.71797080012038,3.0319103002548218,193.88723050011322,"[-300, -300]",[-0.16296296296296298],[-0.1935185185185185],[1],[0],[0],[1.1687428997829556],[1],['target_find'],193.8877312000841,194.90257119992748,,,,,,,,,,,,,,,,,,,,,,,,,,,,,,,,322916,001,2023-11-13_13h16.03.318,Selektive Wahrnehmung,2023.2.3,59.95958712600038,2023-11-13 13h28.24.434804 +0100,
gesicht1,1,10,26,8,,,,,194.95136430021375,,,,,,,,,,194.90331810014322,194.95136430021375,196.9513596999459,197.9343079002574,3.0318065001629293,198.8710415000096,"[0, 300]",[-0.06481481481481481],[0.18055555555555555],[1],[0],[0],[0.9360233996994793],[1],['target_find'],198.87201979989186,199.88580590020865,,,,,,,,,,,,,,,,,,,,,,,,,,,,,,,,322916,001,2023-11-13_13h16.03.318,Selektive Wahrnehmung,2023.2.3,59.95958712600038,2023-11-13 13h28.24.434804 +0100,
spinne2,1,11,27,1,,,,,200.10248970007524,,,,,,,,,,199.8866210002452,200.10248970007524,202.10117809986696,202.91754970001057,3.0317887999117374,205.18546890001744,"[-300, 300]",[-0.42962962962962964],[0.34629629629629627],[1],[0],[0],[2.2674568998627365],[],[],205.1859969003126,206.20206949999556,,,,,,,,,,,,,,,,,,,,,,,,,,,,,,,,322916,001,2023-11-13_13h16.03.318,Selektive Wahrnehmung,2023.2.3,59.95958712600038,2023-11-13 13h28.24.434804 +0100,
auto1,1,12,28,12,,,,,206.28399519994855,,,,,,,,,,206.2028180002235,206.28399519994855,208.28415310010314,209.28416260005906,3.082255399785936,210.30368310026824,"[0, -300]",[-0.08518518518518518],[-0.18425925925925926],[1],[0],[0],[1.0187581996433437],[1],['target_find'],210.30454380018637,211.31728680012748,,,,,,,,,,,,,,,,,,,,,,,,,,,,,,,,322916,001,2023-11-13_13h16.03.318,Selektive Wahrnehmung,2023.2.3,59.95958712600038,2023-11-13 13h28.24.434804 +0100,
schlange1,1,13,29,2,,,,,211.3506764001213,,,,,,,,,,211.31751410011202,211.3506764001213,213.35059210006148,214.33361189998686,3.0163968000561,215.6863374998793,"[-300, -300]",[-0.1527777777777778],[-0.32222222222222224],[1],[0],[0],[1.352239300031215],[1],['target_find'],215.68685929989442,216.702672699932,,,,,,,,,,,,,,,,,,,,,,,,,,,,,,,,322916,001,2023-11-13_13h16.03.318,Selektive Wahrnehmung,2023.2.3,59.95958712600038,2023-11-13 13h28.24.434804 +0100,
zug1,1,14,30,15,,,,,216.75371790025383,,,,,,,,,,216.70330929988995,216.75371790025383,218.76845169998705,219.75051110005006,2.9991628997959197,220.43674769997597,"[300, 0]",[0.16574074074074074],[0.008333333333333333],[1],[0],[0],[0.7339800000190735],[1],['target_find'],220.4372665998526,221.45142879988998,,,,,,,,,,,,,,,,,,,,,,,,,,,,,,,,322916,001,2023-11-13_13h16.03.318,Selektive Wahrnehmung,2023.2.3,59.95958712600038,2023-11-13 13h28.24.434804 +0100,
person1,1,15,31,4,,,,,221.4834851999767,,,,,,,,,,221.45218669995666,221.4834851999767,223.48323830030859,224.48336300021037,3.0320112998597324,225.31801429996267,"[300, 0]",[0.16944444444444445],[-0.021296296296296296],[1],[0],[0],[0.8341851998120546],[1],['target_find'],225.31852680025622,226.3342166999355,,,,,,,,,,,,,,,,,,,,,,,,,,,,,,,,322916,001,2023-11-13_13h16.03.318,Selektive Wahrnehmung,2023.2.3,59.95958712600038,2023-11-13 13h28.24.434804 +0100,
zug1,2,0,32,15,,,,,226.3700212002732,,,,,,,,,,226.33471640013158,226.3700212002732,228.38429589988664,229.34973150026053,3.0155926002189517,230.65811950014904,"[0, -300]",[0.04814814814814815],[-0.19722222222222222],[1],[0],[0],[1.3026330000720918],[1],['target_find'],230.6590169002302,231.66783489985391,,,,,,,,,,,,,,,,,,,,,,,,,,,,,,,,322916,001,2023-11-13_13h16.03.318,Selektive Wahrnehmung,2023.2.3,59.95958712600038,2023-11-13 13h28.24.434804 +0100,
schlange1,2,1,33,2,,,,,231.71662670001388,,,,,,,,,,231.66857620002702,231.71662670001388,233.71640969999135,234.69937080005184,3.0315875001251698,235.4537507998757,"[-300, -300]",[-0.22962962962962963],[-0.262037037037037],[1],[0],[0],[0.7535298001021147],[1],['target_find'],235.45497919991612,236.46869010012597,,,,,,,,,,,,,,,,,,,,,,,,,,,,,,,,322916,001,2023-11-13_13h16.03.318,Selektive Wahrnehmung,2023.2.3,59.95958712600038,2023-11-13 13h28.24.434804 +0100,
person2,2,2,34,5,,,,,236.51927970023826,,,,,,,,,,236.4694646000862,236.51927970023826,238.5338702001609,239.51598690031096,3.0473473998717964,240.25217860005796,"[-300, 300]",[-0.22037037037037038],[0.18055555555555555],[1],[0],[0],[0.7354043000377715],[1],['target_find'],240.25324930017814,241.26698399987072,,,,,,,,,,,,,,,,,,,,,,,,,,,,,,,,322916,001,2023-11-13_13h16.03.318,Selektive Wahrnehmung,2023.2.3,59.95958712600038,2023-11-13 13h28.24.434804 +0100,
auto1,2,3,35,12,,,,,241.3157287002541,,,,,,,,,,241.26763099990785,241.3157287002541,243.3155880002305,244.2990629002452,3.032134999986738,245.15037890011445,"[-300, -300]",[-0.22777777777777777],[-0.25277777777777777],[1],[0],[0],[0.8508457001298666],[1],['target_find'],245.15087120002136,246.1668628999032,,,,,,,,,,,,,,,,,,,,,,,,,,,,,,,,322916,001,2023-11-13_13h16.03.318,Selektive Wahrnehmung,2023.2.3,59.95958712600038,2023-11-13 13h28.24.434804 +0100,
gesicht3,2,4,36,10,,,,,246.2189175998792,,,,,,,,,,246.16735940007493,246.2189175998792,248.23375160014257,249.1820831000805,3.015283400192857,249.7525141001679,"[-300, 0]",[-0.1787037037037037],[-0.04351851851851852],[1],[0],[0],[0.5695338998921216],[1],['target_find'],249.75382300000638,250.7665977999568,,,,,,,,,,,,,,,,,,,,,,,,,,,,,,,,322916,001,2023-11-13_13h16.03.318,Selektive Wahrnehmung,2023.2.3,59.95958712600038,2023-11-13 13h28.24.434804 +0100,
gesicht1,2,5,37,8,,,,,250.81563650025055,,,,,,,,,,250.76717790029943,250.81563650025055,252.81559440027922,253.7986826999113,3.0321331997402012,254.3009195001796,"[0, 300]",[-0.058333333333333334],[0.4064814814814815],[1],[0],[0],[0.5017580003477633],[1],['target_find'],254.30144509999081,255.3171820002608,,,,,,,,,,,,,,,,,,,,,,,,,,,,,,,,322916,001,2023-11-13_13h16.03.318,Selektive Wahrnehmung,2023.2.3,59.95958712600038,2023-11-13 13h28.24.434804 +0100,
spinne2,2,6,38,1,,,,,255.53532609995455,,,,,,,,,,255.31771350000054,255.53532609995455,257.549833400175,258.34870890015736,3.0316090998239815,259.48550079995766,"[-300, 300]",[-0.21574074074074073],[0.24166666666666667],[1],[0],[0],[1.1360071999952197],[1],['target_find'],259.4865860999562,260.499448500108,,,,,,,,,,,,,,,,,,,,,,,,,,,,,,,,322916,001,2023-11-13_13h16.03.318,Selektive Wahrnehmung,2023.2.3,59.95958712600038,2023-11-13 13h28.24.434804 +0100,
gesicht2,2,7,39,9,,,,,260.5820019999519,,,,,,,,,,260.5000444999896,260.5820019999519,262.58178579993546,263.54834760027006,3.048978100065142,264.1495556002483,"[0, -300]",[-0.002777777777777778],[-0.19166666666666668],[1],[0],[0],[0.6007060999982059],[1],['target_find'],264.15023860009387,265.16613440029323,,,,,,,,,,,,,,,,,,,,,,,,,,,,,,,,322916,001,2023-11-13_13h16.03.318,Selektive Wahrnehmung,2023.2.3,59.95958712600038,2023-11-13 13h28.24.434804 +0100,
schlange2,2,8,40,3,,,,,265.20128809986636,,,,,,,,,,265.1667559999041,265.20128809986636,267.2150940001011,268.16499490011483,3.015517200343311,268.9161613001488,"[0, -300]",[-0.02962962962962963],[-0.19907407407407407],[1],[0],[0],[0.7340645999647677],[1],['target_find'],268.9166847001761,269.932698499877,,,,,,,,,,,,,,,,,,,,,,,,,,,,,,,,322916,001,2023-11-13_13h16.03.318,Selektive Wahrnehmung,2023.2.3,59.95958712600038,2023-11-13 13h28.24.434804 +0100,
gruppe1,2,9,41,6,,,,,269.98139620013535,,,,,,,,,,269.9334411001764,269.98139620013535,271.9814842999913,272.964854599908,3.032382800243795,273.8005933999084,"[0, -300]",[-0.028703703703703703],[-0.19074074074074074],[1],[0],[0],[0.8347465000115335],[1],['target_find'],273.8016814002767,274.81677180016413,,,,,,,,,,,,,,,,,,,,,,,,,,,,,,,,322916,001,2023-11-13_13h16.03.318,Selektive Wahrnehmung,2023.2.3,59.95958712600038,2023-11-13 13h28.24.434804 +0100,
flugzeug1,2,10,42,13,,,,,274.8491752999835,,,,,,,,,,274.8173064002767,274.8491752999835,276.8659848999232,277.83101169997826,3.0142982001416385,278.55225080018863,"[300, -300]",[0.10555555555555556],[-0.18796296296296297],[1],[0],[0],[0.720200200099498],[0],['dis3'],278.5538910999894,279.56516300002113,,,,,,,,,,,,,,,,,,,,,,,,,,,,,,,,322916,001,2023-11-13_13h16.03.318,Selektive Wahrnehmung,2023.2.3,59.95958712600038,2023-11-13 13h28.24.434804 +0100,
gesicht4,2,11,43,11,,,,,279.59775129985064,,,,,,,,,,279.565673999954,279.59775129985064,281.59774230001494,282.58089670026675,3.0158034996129572,283.3317097001709,"[-300, 300]",[-0.20277777777777778],[0.2074074074074074],[1],[0],[0],[0.7503459001891315],[1],['target_find'],283.33222249988467,284.33347549987957,,,,,,,,,,,,,,,,,,,,,,,,,,,,,,,,322916,001,2023-11-13_13h16.03.318,Selektive Wahrnehmung,2023.2.3,59.95958712600038,2023-11-13 13h28.24.434804 +0100,
spinne1,2,12,44,0,,,,,284.3653021999635,,,,,,,,,,284.33416510000825,284.3653021999635,286.3820798001252,287.3641979000531,3.0308026000857353,287.95026040030643,"[0, 300]",[-0.09166666666666666],[0.25555555555555554],[1],[0],[0],[0.5851456001400948],[1],['target_find'],287.95179599989206,288.9649589001201,,,,,,,,,,,,,,,,,,,,,,,,,,,,,,,,322916,001,2023-11-13_13h16.03.318,Selektive Wahrnehmung,2023.2.3,59.95958712600038,2023-11-13 13h28.24.434804 +0100,
gruppe2,2,13,45,7,,,,,288.99722280027345,,,,,,,,,,288.9655281002633,288.99722280027345,290.99732130020857,292.0138292000629,3.048952499870211,293.2331829001196,"[-300, 300]",[-0.1814814814814815],[0.17685185185185184],[1],[0],[0],[1.218548099976033],[1],['target_find'],293.23433900019154,294.24871269986033,,,,,,,,,,,,,,,,,,,,,,,,,,,,,,,,322916,001,2023-11-13_13h16.03.318,Selektive Wahrnehmung,2023.2.3,59.95958712600038,2023-11-13 13h28.24.434804 +0100,
person1,2,14,46,4,,,,,294.2832793002017,,,,,,,,,,294.24919580016285,294.2832793002017,296.29705470008776,297.26344639994204,3.0148047003895044,298.24821180012077,"[0, -300]",[0.017592592592592594],[-0.25277777777777777],[1],[0],[0],[0.9842901001684368],[1],['target_find'],298.2487448002212,299.2642800002359,,,,,,,,,,,,,,,,,,,,,,,,,,,,,,,,322916,001,2023-11-13_13h16.03.318,Selektive Wahrnehmung,2023.2.3,59.95958712600038,2023-11-13 13h28.24.434804 +0100,
schiff1,2,15,47,14,,,,,299.2968350001611,,,,,,,,,,299.264736500103,299.2968350001611,301.29677959997207,302.2801415002905,3.016227399930358,303.1150787998922,"[0, -300]",[-0.000925925925925926],[-0.2222222222222222],[1],[0],[0],[0.8340660999529064],[1],['target_find'],303.11560630006716,304.13066040026024,,,,,,,,,,,,,,,,,,,,,,,,,,,,,,,,322916,001,2023-11-13_13h16.03.318,Selektive Wahrnehmung,2023.2.3,59.95958712600038,2023-11-13 13h28.24.434804 +0100,
auto1,3,0,48,12,,,,,304.16658890014514,,,,,,,,,,304.1309523000382,304.16658890014514,306.1812925999984,307.1465354003012,3.016089000273496,307.75099960016087,"[-300, 0]",[-0.21666666666666667],[0.003703703703703704],[1],[0],[0],[0.6037840000353754],[1],['target_find'],307.7515711002052,308.7642875001766,,,,,,,,,,,,,,,,,,,,,,,,,,,,,,,,322916,001,2023-11-13_13h16.03.318,Selektive Wahrnehmung,2023.2.3,59.95958712600038,2023-11-13 13h28.24.434804 +0100,
gesicht4,3,1,49,11,,,,,308.8129654000513,,,,,,,,,,308.7650520000607,308.8129654000513,310.81310599995777,311.79649189999327,3.0323982001282275,312.69832760002464,"[-300, 300]",[-0.20462962962962963],[0.22685185185185186],[1],[0],[0],[0.9009189000353217],[1],['target_find'],312.6993244001642,313.7153372000903,,,,,,,,,,,,,,,,,,,,,,,,,,,,,,,,322916,001,2023-11-13_13h16.03.318,Selektive Wahrnehmung,2023.2.3,59.95958712600038,2023-11-13 13h28.24.434804 +0100,
schiff1,3,2,50,14,,,,,313.747624500189,,,,,,,,,,313.7159330002032,313.747624500189,315.7473293002695,316.74608050007373,3.030829899944365,317.4484375999309,"[300, 0]",[0.2537037037037037],[0.06666666666666667],[1],[0],[0],[0.7015446000732481],[1],['target_find'],317.44960490008816,318.4637052002363,,,,,,,,,,,,,,,,,,,,,,,,,,,,,,,,322916,001,2023-11-13_13h16.03.318,Selektive Wahrnehmung,2023.2.3,59.95958712600038,2023-11-13 13h28.24.434804 +0100,
gesicht1,3,3,51,8,,,,,318.5125903999433,,,,,,,,,,318.46434629987925,318.5125903999433,320.5127786998637,321.4956113998778,2.9990769997239113,322.1829393003136,"[0, 300]",[-0.010185185185185186],[0.1787037037037037],[1],[0],[0],[0.7188626998104155],[1],['target_find'],322.1841004001908,323.19711650023237,,,,,,,,,,,,,,,,,,,,,,,,,,,,,,,,322916,001,2023-11-13_13h16.03.318,Selektive Wahrnehmung,2023.2.3,59.95958712600038,2023-11-13 13h28.24.434804 +0100,
zug1,3,4,52,15,,,,,323.24890160001814,,,,,,,,,,323.1977957999334,323.24890160001814,325.2637315001339,326.212530199904,3.0154898003675044,327.11609059991315,"[300, -300]",[0.15648148148148147],[-0.3537037037037037],[1],[0],[0],[0.9027941999956965],[1],['target_find'],327.1171896001324,328.12943940004334,,,,,,,,,,,,,,,,,,,,,,,,,,,,,,,,322916,001,2023-11-13_13h16.03.318,Selektive Wahrnehmung,2023.2.3,59.95958712600038,2023-11-13 13h28.24.434804 +0100,
gesicht3,3,5,53,10,,,,,328.16525219986215,,,,,,,,,,328.1297049000859,328.16525219986215,330.1802885001525,331.1457187002525,3.0163746997714043,332.0990283000283,"[-300, -300]",[-0.36666666666666664],[-0.2814814814814815],[1],[0],[0],[0.9522114000283182],[1],['target_find'],332.1005711001344,333.11298929993063,,,,,,,,,,,,,,,,,,,,,,,,,,,,,,,,322916,001,2023-11-13_13h16.03.318,Selektive Wahrnehmung,2023.2.3,59.95958712600038,2023-11-13 13h28.24.434804 +0100,
gruppe1,3,6,54,6,,,,,333.16212610015646,,,,,,,,,,333.1135958000086,333.16212610015646,335.1620502001606,336.1452232999727,3.0323079000227153,337.0482160001993,"[-300, 300]",[-0.14351851851851852],[0.2796296296296296],[1],[0],[0],[0.902080399915576],[1],['target_find'],337.04956539999694,338.0627029002644,,,,,,,,,,,,,,,,,,,,,,,,,,,,,,,,322916,001,2023-11-13_13h16.03.318,Selektive Wahrnehmung,2023.2.3,59.95958712600038,2023-11-13 13h28.24.434804 +0100,
person1,3,7,55,4,,,,,338.09627690026537,,,,,,,,,,338.06321270018816,338.09627690026537,340.1128463000059,341.07830940000713,3.015666200313717,341.6477747000754,"[-300, 0]",[-0.175],[-0.028703703703703703],[1],[0],[0],[0.5686949002556503],[1],['target_find'],341.64892280008644,342.66281219990924,,,,,,,,,,,,,,,,,,,,,,,,,,,,,,,,322916,001,2023-11-13_13h16.03.318,Selektive Wahrnehmung,2023.2.3,59.95958712600038,2023-11-13 13h28.24.434804 +0100,
spinne1,3,8,56,0,,,,,342.71150860004127,,,,,,,,,,342.6636385000311,342.71150860004127,344.71164660016075,345.6948755001649,3.032137299887836,347.56446060026065,"[300, -300]",[0.15648148148148147],[-0.27314814814814814],[1],[0],[0],[1.8690881999209523],[1],['target_find'],347.56498409993947,348.5791007000953,,,,,,,,,,,,,,,,,,,,,,,,,,,,,,,,322916,001,2023-11-13_13h16.03.318,Selektive Wahrnehmung,2023.2.3,59.95958712600038,2023-11-13 13h28.24.434804 +0100,
spinne2,3,9,57,1,,,,,348.7777865002863,,,,,,,,,,348.5796775999479,348.7777865002863,350.77807789994404,351.6277773003094,2.9990729996934533,353.51325710024685,"[-300, -300]",[-0.1962962962962963],[-0.16666666666666666],[1],[0],[0],[1.93390760011971],[1],['target_find'],353.5141893001273,354.52897780016065,,,,,,,,,,,,,,,,,,,,,,,,,,,,,,,,322916,001,2023-11-13_13h16.03.318,Selektive Wahrnehmung,2023.2.3,59.95958712600038,2023-11-13 13h28.24.434804 +0100,
person2,3,10,58,5,,,,,354.5957051999867,,,,,,,,,,354.5295839002356,354.5957051999867,356.6123687000945,357.5945561998524,3.0656522000208497,358.68115309998393,"[300, -300]",[0.262037037037037],[-0.2388888888888889],[1],[0],[0],[1.0857773995958269],[1],['target_find'],358.6823105001822,359.6954256002791,,,,,,,,,,,,,,,,,,,,,,,,,,,,,,,,322916,001,2023-11-13_13h16.03.318,Selektive Wahrnehmung,2023.2.3,59.95958712600038,2023-11-13 13h28.24.434804 +0100,
schlange2,3,11,59,3,,,,,359.7441684999503,,,,,,,,,,359.6961666001007,359.7441684999503,361.7441246001981,362.72739830007777,3.032050699926913,363.7656777999364,"[0, 300]",[0.03888888888888889],[0.25925925925925924],[1],[0],[0],[1.0377877997234464],[1],['target_find'],363.7662026002072,364.77971919998527,,,,,,,,,,,,,,,,,,,,,,,,,,,,,,,,322916,001,2023-11-13_13h16.03.318,Selektive Wahrnehmung,2023.2.3,59.95958712600038,2023-11-13 13h28.24.434804 +0100,
gesicht2,3,12,60,9,,,,,364.81199479987845,,,,,,,,,,364.78020199993625,364.81199479987845,366.81072469986975,367.81041070027277,3.030741899739951,368.63002410018817,"[300, -300]",[0.19444444444444445],[-0.29814814814814816],[1],[0],[0],[0.8189981998875737],[1],['target_find'],368.6308793001808,369.64522380009294,,,,,,,,,,,,,,,,,,,,,,,,,,,,,,,,322916,001,2023-11-13_13h16.03.318,Selektive Wahrnehmung,2023.2.3,59.95958712600038,2023-11-13 13h28.24.434804 +0100,
gruppe2,3,13,61,7,,,,,369.693622100167,,,,,,,,,,369.64599250024185,369.693622100167,371.6936737000942,372.6766186002642,3.0314409998245537,373.7127606002614,"[-300, 300]",[-0.16018518518518518],[0.21388888888888888],[1],[0],[0],[1.0353687996976078],[1],['target_find'],373.7139277001843,374.72903699986637,,,,,,,,,,,,,,,,,,,,,,,,,,,,,,,,322916,001,2023-11-13_13h16.03.318,Selektive Wahrnehmung,2023.2.3,59.95958712600038,2023-11-13 13h28.24.434804 +0100,
schlange1,3,14,62,2,,,,,374.76330089988187,,,,,,,,,,374.7295325999148,374.76330089988187,376.7782848998904,377.7769146999344,2.9991319999098778,378.49574980000034,"[300, 0]",[0.1962962962962963],[-0.08703703703703704],[1],[0],[0],[0.7664291998371482],[1],['target_find'],378.49673200026155,379.51121210027486,,,,,,,,,,,,,,,,,,,,,,,,,,,,,,,,322916,001,2023-11-13_13h16.03.318,Selektive Wahrnehmung,2023.2.3,59.95958712600038,2023-11-13 13h28.24.434804 +0100,
flugzeug1,3,15,63,13,,,,,379.55985470023006,,,,,,,,,,379.5119754001498,379.55985470023006,381.5600403002463,382.5433233003132,3.032199500128627,383.5109848002903,"[-300, 300]",[-0.34074074074074073],[0.24259259259259258],[1],[0],[0],[0.9671709998510778],[1],['target_find'],383.51150500029325,384.5287200999446,,,,,,,,,,,,,,,,,,,,,,,,,,,,,,,,322916,001,2023-11-13_13h16.03.318,Selektive Wahrnehmung,2023.2.3,59.95958712600038,2023-11-13 13h28.24.434804 +0100,
spinne2,4,0,64,1,,,,,384.74442770006135,,,,,,,,,,384.5293021001853,384.74442770006135,386.74312120024115,387.5597168998793,3.031072100158781,389.3607029998675,"[300, 300]",[0.23981481481481481],[0.1685185185185185],[1],[0],[0],[1.8004461000673473],[1],['target_find'],389.3612243998796,390.37738349987194,,,,,,,,,,,,,,,,,,,,,,,,,,,,,,,,322916,001,2023-11-13_13h16.03.318,Selektive Wahrnehmung,2023.2.3,59.95958712600038,2023-11-13 13h28.24.434804 +0100,
zug1,4,1,65,15,,,,,390.442669400014,,,,,,,,,,390.3781441003084,390.442669400014,392.4428906003013,393.4260610998608,3.0487444000318646,394.2278682002798,"[-300, 300]",[-0.1648148148148148],[0.25092592592592594],[1],[0],[0],[0.8013420002534986],[1],['target_find'],394.22839470021427,395.24340149993077,,,,,,,,,,,,,,,,,,,,,,,,,,,,,,,,322916,001,2023-11-13_13h16.03.318,Selektive Wahrnehmung,2023.2.3,59.95958712600038,2023-11-13 13h28.24.434804 +0100,
person2,4,2,66,5,,,,,395.27608840027824,,,,,,,,,,395.2438877001405,395.27608840027824,397.27597940014675,398.25916740018874,3.0158433001488447,398.8944784998894,"[300, 0]",[0.22685185185185186],[0.007407407407407408],[1],[0],[0],[0.6347583001479506],[1],['target_find'],398.8950040000491,399.9103425000794,,,,,,,,,,,,,,,,,,,,,,,,,,,,,,,,322916,001,2023-11-13_13h16.03.318,Selektive Wahrnehmung,2023.2.3,59.95958712600038,2023-11-13 13h28.24.434804 +0100,
flugzeug1,4,3,67,13,,,,,399.95910330023617,,,,,,,,,,399.91112919989973,399.95910330023617,401.9604986002669,402.92572630010545,3.0154531998559833,404.7267972002737,"[300, -300]",[0.22314814814814815],[-0.26481481481481484],[1],[0],[0],[1.8005699999630451],[1],['target_find'],404.72726870002225,405.74365520011634,,,,,,,,,,,,,,,,,,,,,,,,,,,,,,,,322916,001,2023-11-13_13h16.03.318,Selektive Wahrnehmung,2023.2.3,59.95958712600038,2023-11-13 13h28.24.434804 +0100,
gruppe1,4,4,68,6,,,,,405.79213810013607,,,,,,,,,,405.74445590004325,405.79213810013607,407.7921764003113,408.77553099999204,3.03194270003587,409.596346499864,"[0, 300]",[-0.03333333333333333],[0.24259259259259258],[1],[0],[0],[0.8197718001902103],[1],['target_find'],409.5979925999418,410.60987289994955,,,,,,,,,,,,,,,,,,,,,,,,,,,,,,,,322916,001,2023-11-13_13h16.03.318,Selektive Wahrnehmung,2023.2.3,59.95958712600038,2023-11-13 13h28.24.434804 +0100,
gesicht4,4,5,69,11,,,,,410.6618455001153,,,,,,,,,,410.61063500028104,410.6618455001153,412.67652790015563,413.64187559997663,3.032070600427687,414.6613739002496,"[-300, -300]",[-0.2574074074074074],[-0.2037037037037037],[1],[0],[0],[1.0187615002505481],[1],['target_find'],414.6623577000573,415.6763613000512,,,,,,,,,,,,,,,,,,,,,,,,,,,,,,,,322916,001,2023-11-13_13h16.03.318,Selektive Wahrnehmung,2023.2.3,59.95958712600038,2023-11-13 13h28.24.434804 +0100,
gesicht2,4,6,70,9,,,,,415.72508230013773,,,,,,,,,,415.6770990001969,415.72508230013773,417.7251598001458,418.7083125002682,3.0320234997197986,420.2103070002049,"[300, -300]",[0.30462962962962964],[-0.17685185185185184],[1],[0],[0],[1.5013442002236843],[1],['target_find'],420.21106179989874,421.2251833002083,,,,,,,,,,,,,,,,,,,,,,,,,,,,,,,,322916,001,2023-11-13_13h16.03.318,Selektive Wahrnehmung,2023.2.3,59.95958712600038,2023-11-13 13h28.24.434804 +0100,
schiff1,4,7,71,14,,,,,421.27461459999904,,,,,,,,,,421.2256439002231,421.27461459999904,423.2748048999347,424.24152809986845,3.0164458001963794,424.8617036999203,"[0, 300]",[0.014814814814814815],[0.2824074074074074],[1],[0],[0],[0.6192228002473712],[1],['target_find'],424.86305449996144,425.8758578002453,,,,,,,,,,,,,,,,,,,,,,,,,,,,,,,,322916,001,2023-11-13_13h16.03.318,Selektive Wahrnehmung,2023.2.3,59.95958712600038,2023-11-13 13h28.24.434804 +0100,
gesicht1,4,8,72,8,,,,,425.9279156001285,,,,,,,,,,425.87660349998623,425.9279156001285,427.9413768001832,428.8911884999834,3.0154333002865314,429.67815170018,"[0, 300]",[0.010185185185185186],[0.25555555555555554],[1],[0],[0],[0.7861506002955139],[1],['target_find'],429.6792174000293,430.6922859000042,,,,,,,,,,,,,,,,,,,,,,,,,,,,,,,,322916,001,2023-11-13_13h16.03.318,Selektive Wahrnehmung,2023.2.3,59.95958712600038,2023-11-13 13h28.24.434804 +0100,
person1,4,9,73,4,,,,,430.74117120029405,,,,,,,,,,430.69297740003094,430.74117120029405,432.7411295999773,433.72427970031276,3.0320716998539865,434.76187140028924,"[0, 300]",[0.01574074074074074],[0.15462962962962962],[1],[0],[0],[1.03710460010916],[1],['target_find'],434.76237339992076,435.7767384001054,,,,,,,,,,,,,,,,,,,,,,,,,,,,,,,,322916,001,2023-11-13_13h16.03.318,Selektive Wahrnehmung,2023.2.3,59.95958712600038,2023-11-13 13h28.24.434804 +0100,
spinne1,4,10,74,0,,,,,435.82728230021894,,,,,,,,,,435.7775337998755,435.82728230021894,437.8409799998626,438.8252535001375,3.0485840998589993,439.8935898002237,"[-300, 300]",[-0.18888888888888888],[0.22037037037037038],[1],[0],[0],[1.0675107999704778],[1],['target_find'],439.89465070003644,440.9087514001876,,,,,,,,,,,,,,,,,,,,,,,,,,,,,,,,322916,001,2023-11-13_13h16.03.318,Selektive Wahrnehmung,2023.2.3,59.95958712600038,2023-11-13 13h28.24.434804 +0100,
auto1,4,11,75,12,,,,,440.95734849991277,,,,,,,,,,440.90949050011113,440.95734849991277,442.95736119989306,443.9404167998582,3.031843800097704,444.77722899988294,"[300, -300]",[0.2601851851851852],[-0.2712962962962963],[1],[0],[0],[0.8357538999989629],[1],['target_find'],444.7786268000491,445.79305540025234,,,,,,,,,,,,,,,,,,,,,,,,,,,,,,,,322916,001,2023-11-13_13h16.03.318,Selektive Wahrnehmung,2023.2.3,59.95958712600038,2023-11-13 13h28.24.434804 +0100,
schlange1,4,12,76,2,,,,,445.8436707002111,,,,,,,,,,445.79379989998415,445.8436707002111,447.85844120010734,448.84033309994265,3.0473529999144375,449.5088855000213,"[-300, 0]",[-0.22870370370370371],[0.019444444444444445],[1],[0],[0],[0.6680771000683308],[1],['target_find'],449.50959530007094,450.52431190013885,,,,,,,,,,,,,,,,,,,,,,,,,,,,,,,,322916,001,2023-11-13_13h16.03.318,Selektive Wahrnehmung,2023.2.3,59.95958712600038,2023-11-13 13h28.24.434804 +0100,
gesicht3,4,13,77,10,,,,,450.55707800015807,,,,,,,,,,450.52479779999703,450.55707800015807,452.55689379991964,453.5399899003096,3.015759200323373,454.1106006000191,"[0, -300]",[-0.007407407407407408],[-0.18981481481481483],[1],[0],[0],[0.5696298000402749],[1],['target_find'],454.1120271002874,455.1252163001336,,,,,,,,,,,,,,,,,,,,,,,,,,,,,,,,322916,001,2023-11-13_13h16.03.318,Selektive Wahrnehmung,2023.2.3,59.95958712600038,2023-11-13 13h28.24.434804 +0100,
gruppe2,4,14,78,7,,,,,455.17661220021546,,,,,,,,,,455.1259941002354,455.17661220021546,457.19112360011786,458.14020120026544,3.0151991001330316,461.0422670003027,"[300, 0]",[0.175],[-0.06574074074074074],[1],[0],[0],[2.901055700145662],[1],['target_find'],461.0434242999181,462.0567989000119,,,,,,,,,,,,,,,,,,,,,,,,,,,,,,,,322916,001,2023-11-13_13h16.03.318,Selektive Wahrnehmung,2023.2.3,59.95958712600038,2023-11-13 13h28.24.434804 +0100,
schlange2,4,15,79,3,,,,,462.0896477000788,,,,,,,,,,462.0572536000982,462.0896477000788,464.0897105000913,465.0729821003042,3.016276199836284,466.1755355000496,"[-300, -300]",[-0.1648148148148148],[-0.2222222222222222],[1],[0],[0],[1.1020156000740826],[1],['target_find'],466.17607260029763,467.18996350001544,,,,,,,,,,,,,,,,,,,,,,,,,,,,,,,,322916,001,2023-11-13_13h16.03.318,Selektive Wahrnehmung,2023.2.3,59.95958712600038,2023-11-13 13h28.24.434804 +0100,
,,,,,0,0,0,0,473.37547710025683,,,,,,,,,,,,,,,,,,,,,,,,,,,467.2008686000481,470.6406952999532,470.6407258999534,473.2919445000589,473.29304650006816,483.9806417999789,1.0,2.0,zug1,,,,,,,,,,,,,,,,,,,,,,,322916,001,2023-11-13_13h16.03.318,Selektive Wahrnehmung,2023.2.3,59.95958712600038,2023-11-13 13h28.24.434804 +0100,
,,,,,1,0,1,0,484.04175790026784,,,,,,,,,,,,,,,,,,,,,,,,,,,,,,,483.9810120998882,490.3137334003113,1.0,1.0,auto1,,,,,,,,,,,,,,,,,,,,,,,322916,001,2023-11-13_13h16.03.318,Selektive Wahrnehmung,2023.2.3,59.95958712600038,2023-11-13 13h28.24.434804 +0100,
,,,,,2,0,2,0,490.35815129987895,,,,,,,,,,,,,,,,,,,,,,,,,,,,,,,490.3140480001457,496.630640800111,1.0,2.0,spinne1,,,,,,,,,,,,,,,,,,,,,,,322916,001,2023-11-13_13h16.03.318,Selektive Wahrnehmung,2023.2.3,59.95958712600038,2023-11-13 13h28.24.434804 +0100,
,,,,,3,0,3,0,496.6912130001001,,,,,,,,,,,,,,,,,,,,,,,,,,,,,,,496.63096720026806,500.12090829992667,1.0,2.0,schiff1,,,,,,,,,,,,,,,,,,,,,,,322916,001,2023-11-13_13h16.03.318,Selektive Wahrnehmung,2023.2.3,59.95958712600038,2023-11-13 13h28.24.434804 +0100,
,,,,,4,0,4,0,500.17271610023454,,,,,,,,,,,,,,,,,,,,,,,,,,,,,,,500.1215233001858,503.32890320010483,1.0,1.0,gruppe1,,,,,,,,,,,,,,,,,,,,,,,322916,001,2023-11-13_13h16.03.318,Selektive Wahrnehmung,2023.2.3,59.95958712600038,2023-11-13 13h28.24.434804 +0100,
,,,,,,,,,,,,,,,,,,,,,,,,,,,,,,,,,,,,,,,,,,,,,503.33299669995904,513.256983099971, 18,1.0,513.2570056999102,527.3949095001444,3.0,4.0,527.3949274001643,530.1565749999136,530.1566139999777,542.5417494000867,2.0,4.0,3.0,2.0,542.5417810999788,551.6610811999999,3.0,3.0,551.661102199927,552.3221968002617,,,,,,,,
