Target,trials.thisRepN,trials.thisTrialN,trials.thisN,trials.thisIndex,trials_2.thisRepN,trials_2.thisTrialN,trials_2.thisN,trials_2.thisIndex,thisRow.t,notes,Data_transparency.started,key_resp_data_transp.started,Data_transparency.stopped,key_resp_data_transp.keys,key_resp_data_transp.rt,key_resp_data_transp.duration,instructions.started,instructions.stopped,trial.started,target_show.started,target_show.stopped,target_find.started,mouse.started,trial.stopped,target_position_x_y,mouse.x,mouse.y,mouse.leftButton,mouse.midButton,mouse.rightButton,mouse.time,mouse.corr,mouse.clicked_name,feedback.started,feedback.stopped,instructions_survey.started,instructions_survey.stopped,instructions_ratings.started,instructions_ratings.stopped,survey_ratings.started,survey_ratings.stopped,furcht.response,liebenswert.response,rated_image,survey_gen.started,survey_gen.stopped,age.text,gender.response,survey_games.started,survey_games.stopped,pc_frequency.response,reaction_games_frequency.response,instructions_neuro.started,instructions_neuro.stopped,survey_neuro.started,survey_neuro.stopped,neuro_1_rev.response,neuro_2.response,neuro_3.response,neuro_4_rev.response,survey_fear.started,survey_fear.stopped,specific_fear_spider.response,specific_fear_snake.response,thanks.started,thanks.stopped,participant,session,date,expName,psychopyVersion,frameRate,expStart,
,,,,,,,,,,,0.01846519999890006,0.035023399999772664,41.682926399998905,z,41.641893099998924,None,,,,,,,,,,,,,,,,,,,,,,,,,,,,,,,,,,,,,,,,,,,,,,,,,,,341212,001,2023-11-13_13h16.05.218,Selektive Wahrnehmung,2023.2.3,59.83129966711454,2023-11-13 13h28.28.587559 +0100,
,,,,,,,,,,,,,,,,,41.68298879999929,71.065654,,,,,,,,,,,,,,,,,,,,,,,,,,,,,,,,,,,,,,,,,,,,,,,,,341212,001,2023-11-13_13h16.05.218,Selektive Wahrnehmung,2023.2.3,59.83129966711454,2023-11-13 13h28.28.587559 +0100,
gesicht3,0,0,0,10,,,,,71.19878599999902,,,,,,,,,,71.08464219999951,71.19878599999902,73.21331069999906,74.09533480000027,3.0297396999994817,75.61436409999988,"[300, 0]",[0.3074074074074074],[-0.03981481481481482],[1],[0],[0],[1.5183566000014252],[1],['target_find'],75.61603439999999,76.62988819999919,,,,,,,,,,,,,,,,,,,,,,,,,,,,,,,,341212,001,2023-11-13_13h16.05.218,Selektive Wahrnehmung,2023.2.3,59.83129966711454,2023-11-13 13h28.28.587559 +0100,
schiff1,0,1,1,14,,,,,76.67896069999915,,,,,,,,,,76.63050899999871,76.67896069999915,78.67881189999935,79.69548709999981,3.065672700000505,81.19721439999921,"[0, 300]",[0.025925925925925925],[0.2537037037037037],[1],[0],[0],[1.5010997999997926],[1],['target_find'],81.1979811000001,82.21314619999976,,,,,,,,,,,,,,,,,,,,,,,,,,,,,,,,341212,001,2023-11-13_13h16.05.218,Selektive Wahrnehmung,2023.2.3,59.83129966711454,2023-11-13 13h28.28.587559 +0100,
gesicht2,0,2,2,9,,,,,82.36167569999998,,,,,,,,,,82.21390470000006,82.36167569999998,84.36168980000002,85.26192699999956,3.0488519000009546,86.5808735999999,"[-300, -300]",[-0.25833333333333336],[-0.25555555555555554],[1],[0],[0],[1.318145100000038],[1],['target_find'],86.58192499999859,87.59600339999997,,,,,,,,,,,,,,,,,,,,,,,,,,,,,,,,341212,001,2023-11-13_13h16.05.218,Selektive Wahrnehmung,2023.2.3,59.83129966711454,2023-11-13 13h28.28.587559 +0100,
spinne1,0,3,3,0,,,,,87.66463909999948,,,,,,,,,,87.59642619999977,87.66463909999948,89.67849209999986,90.64488399999937,3.048964999999953,92.21436019999965,"[0, 300]",[-0.001851851851851852],[0.25833333333333336],[1],[0],[0],[1.5686464999998861],[1],['target_find'],92.21550639999987,93.22835479999958,,,,,,,,,,,,,,,,,,,,,,,,,,,,,,,,341212,001,2023-11-13_13h16.05.218,Selektive Wahrnehmung,2023.2.3,59.83129966711454,2023-11-13 13h28.28.587559 +0100,
gruppe1,0,4,4,6,,,,,93.27784579999934,,,,,,,,,,93.22873329999857,93.27784579999934,95.27809619999971,96.24479819999942,3.0167573999988235,97.03230389999953,"[300, 0]",[0.2564814814814815],[-0.03333333333333333],[1],[0],[0],[0.7862404000006791],[1],['target_find'],97.03371209999932,98.04696820000026,,,,,,,,,,,,,,,,,,,,,,,,,,,,,,,,341212,001,2023-11-13_13h16.05.218,Selektive Wahrnehmung,2023.2.3,59.83129966711454,2023-11-13 13h28.28.587559 +0100,
person1,0,5,5,4,,,,,98.09742039999946,,,,,,,,,,98.04773989999921,98.09742039999946,100.11257269999987,101.09466649999922,2.9990337999988697,102.46524729999874,"[300, 300]",[0.31203703703703706],[0.25092592592592594],[1],[0],[0],[1.418257100000119],[1],['target_find'],102.46574270000019,103.47910989999946,,,,,,,,,,,,,,,,,,,,,,,,,,,,,,,,341212,001,2023-11-13_13h16.05.218,Selektive Wahrnehmung,2023.2.3,59.83129966711454,2023-11-13 13h28.28.587559 +0100,
schlange1,0,6,6,2,,,,,103.5275485000002,,,,,,,,,,103.47996950000015,103.5275485000002,105.52766239999983,106.51057930000024,3.031516400000328,108.24715649999962,"[-300, -300]",[-0.24444444444444444],[-0.25277777777777777],[1],[0],[0],[1.735789799999111],[1],['target_find'],108.24832909999895,109.26338239999859,,,,,,,,,,,,,,,,,,,,,,,,,,,,,,,,341212,001,2023-11-13_13h16.05.218,Selektive Wahrnehmung,2023.2.3,59.83129966711454,2023-11-13 13h28.28.587559 +0100,
spinne2,0,7,7,1,,,,,109.46078060000036,,,,,,,,,,109.26413739999953,109.46078060000036,111.4619547000002,112.31066779999855,3.0473547000001417,113.56302969999888,"[-300, -300]",[-0.2462962962962963],[-0.25925925925925924],[1],[0],[0],[1.2516306999987137],[1],['target_find'],113.56412850000015,114.57846830000017,,,,,,,,,,,,,,,,,,,,,,,,,,,,,,,,341212,001,2023-11-13_13h16.05.218,Selektive Wahrnehmung,2023.2.3,59.83129966711454,2023-11-13 13h28.28.587559 +0100,
gruppe2,0,8,8,7,,,,,114.66057759999967,,,,,,,,,,114.57923259999916,114.66057759999967,116.66053749999992,117.62708989999919,3.048690699999497,118.83079410000028,"[300, 300]",[0.24722222222222223],[0.2518518518518518],[1],[0],[0],[1.2029255999987072],[1],['target_find'],118.83196099999986,119.84525219999887,,,,,,,,,,,,,,,,,,,,,,,,,,,,,,,,341212,001,2023-11-13_13h16.05.218,Selektive Wahrnehmung,2023.2.3,59.83129966711454,2023-11-13 13h28.28.587559 +0100,
gesicht1,0,9,9,8,,,,,119.91167870000027,,,,,,,,,,119.8459426999998,119.91167870000027,121.91032009999981,122.86024689999977,3.0150469000000157,123.82920689999992,"[0, -300]",[0.02962962962962963],[-0.27870370370370373],[1],[0],[0],[0.968220000000656],[1],['target_find'],123.83013749999918,124.84451739999895,,,,,,,,,,,,,,,,,,,,,,,,,,,,,,,,341212,001,2023-11-13_13h16.05.218,Selektive Wahrnehmung,2023.2.3,59.83129966711454,2023-11-13 13h28.28.587559 +0100,
schlange2,0,10,10,3,,,,,124.89348029999928,,,,,,,,,,124.84515439999996,124.89348029999928,126.89344689999962,127.89328639999985,3.048840499999642,129.46187759999884,"[0, -300]",[0.007407407407407408],[-0.26944444444444443],[1],[0],[0],[1.5678683999994973],[1],['target_find'],129.46265109999877,130.47758189999877,,,,,,,,,,,,,,,,,,,,,,,,,,,,,,,,341212,001,2023-11-13_13h16.05.218,Selektive Wahrnehmung,2023.2.3,59.83129966711454,2023-11-13 13h28.28.587559 +0100,
auto1,0,11,11,12,,,,,130.5097952999986,,,,,,,,,,130.4782400999993,130.5097952999986,132.5099551000003,133.50970570000027,2.9990140999998403,134.39452269999856,"[300, 0]",[0.2898148148148148],[-0.041666666666666664],[1],[0],[0],[0.9170627000003151],[1],['target_find'],134.39504549999947,135.41023270000005,,,,,,,,,,,,,,,,,,,,,,,,,,,,,,,,341212,001,2023-11-13_13h16.05.218,Selektive Wahrnehmung,2023.2.3,59.83129966711454,2023-11-13 13h28.28.587559 +0100,
flugzeug1,0,12,12,13,,,,,135.4461027999987,,,,,,,,,,135.41051049999987,135.4461027999987,137.4607844000002,138.42739989999973,3.01726570000028,140.913237499999,"[300, -300]",[0.21574074074074073],[-0.25462962962962965],[1],[0],[0],[2.4850026999993133],[1],['target_find'],140.91438449999987,141.92695470000035,,,,,,,,,,,,,,,,,,,,,,,,,,,,,,,,341212,001,2023-11-13_13h16.05.218,Selektive Wahrnehmung,2023.2.3,59.83129966711454,2023-11-13 13h28.28.587559 +0100,
person2,0,13,13,5,,,,,141.95951689999856,,,,,,,,,,141.92749000000003,141.95951689999856,143.95948320000025,144.9424925000003,3.015595000000758,146.07829999999922,"[-300, 300]",[-0.2074074074074074],[0.2675925925925926],[1],[0],[0],[1.135065599999507],[1],['target_find'],146.0794666999991,147.0935688999998,,,,,,,,,,,,,,,,,,,,,,,,,,,,,,,,341212,001,2023-11-13_13h16.05.218,Selektive Wahrnehmung,2023.2.3,59.83129966711454,2023-11-13 13h28.28.587559 +0100,
zug1,0,14,14,15,,,,,147.12559829999918,,,,,,,,,,147.09420929999942,147.12559829999918,149.12544809999963,150.1424508,3.0489526000001206,151.4439179000001,"[-300, -300]",[-0.26296296296296295],[-0.22685185185185186],[1],[0],[0],[1.3008484000001772],[1],['target_find'],151.44463509999878,152.4596077999995,,,,,,,,,,,,,,,,,,,,,,,,,,,,,,,,341212,001,2023-11-13_13h16.05.218,Selektive Wahrnehmung,2023.2.3,59.83129966711454,2023-11-13 13h28.28.587559 +0100,
gesicht4,0,15,15,11,,,,,152.49234739999883,,,,,,,,,,152.46004100000027,152.49234739999883,154.4922104999987,155.47562199999993,3.0161079999998037,156.39519029999974,"[0, -300]",[-0.07222222222222222],[-0.2759259259259259],[1],[0],[0],[0.9187374000011914],[1],['target_find'],156.3962522999991,157.40899089999948,,,,,,,,,,,,,,,,,,,,,,,,,,,,,,,,341212,001,2023-11-13_13h16.05.218,Selektive Wahrnehmung,2023.2.3,59.83129966711454,2023-11-13 13h28.28.587559 +0100,
zug1,1,0,16,15,,,,,157.44339740000032,,,,,,,,,,157.40927439999905,157.44339740000032,159.44337749999977,160.42527820000032,3.016384000000471,164.14389709999887,"[0, -300]",[-0.007407407407407408],[-0.03611111111111111],[1],[0],[0],[3.717881300000954],[0],['dis2'],164.1448982999991,165.15898679999918,,,,,,,,,,,,,,,,,,,,,,,,,,,,,,,,341212,001,2023-11-13_13h16.05.218,Selektive Wahrnehmung,2023.2.3,59.83129966711454,2023-11-13 13h28.28.587559 +0100,
auto1,1,1,17,12,,,,,165.19169539999893,,,,,,,,,,165.15924519999862,165.19169539999893,167.19297099999858,168.19165090000024,3.032945799999652,169.0444252999987,"[300, -300]",[0.275],[-0.3101851851851852],[1],[0],[0],[0.8516952999998466],[1],['target_find'],169.04574289999982,170.0590943999996,,,,,,,,,,,,,,,,,,,,,,,,,,,,,,,,341212,001,2023-11-13_13h16.05.218,Selektive Wahrnehmung,2023.2.3,59.83129966711454,2023-11-13 13h28.28.587559 +0100,
person1,1,2,18,4,,,,,170.0915200999989,,,,,,,,,,170.05962349999936,170.0915200999989,172.09150699999918,173.0745053999999,3.015468300000066,174.19430569999895,"[-300, 300]",[-0.28055555555555556],[0.28703703703703703],[1],[0],[0],[1.1189768999993248],[1],['target_find'],174.19547619999867,175.21015369999986,,,,,,,,,,,,,,,,,,,,,,,,,,,,,,,,341212,001,2023-11-13_13h16.05.218,Selektive Wahrnehmung,2023.2.3,59.83129966711454,2023-11-13 13h28.28.587559 +0100,
gesicht1,1,3,19,8,,,,,175.24462510000012,,,,,,,,,,175.21068670000022,175.24462510000012,177.25940959999934,178.2414504999997,3.031581000001097,179.06026050000037,"[300, 0]",[0.2777777777777778],[0.025925925925925925],[1],[0],[0],[0.8178165000008448],[1],['target_find'],179.06159709999883,180.07566979999865,,,,,,,,,,,,,,,,,,,,,,,,,,,,,,,,341212,001,2023-11-13_13h16.05.218,Selektive Wahrnehmung,2023.2.3,59.83129966711454,2023-11-13 13h28.28.587559 +0100,
gruppe1,1,4,20,6,,,,,180.1244657999996,,,,,,,,,,180.07636399999865,180.1244657999996,182.12436530000014,183.10734450000018,3.031728400001157,184.0614098999995,"[300, 300]",[0.2351851851851852],[0.25092592592592594],[1],[0],[0],[0.95300270000007],[1],['target_find'],184.06291359999886,185.07686319999993,,,,,,,,,,,,,,,,,,,,,,,,,,,,,,,,341212,001,2023-11-13_13h16.05.218,Selektive Wahrnehmung,2023.2.3,59.83129966711454,2023-11-13 13h28.28.587559 +0100,
person2,1,5,21,5,,,,,185.1270585000002,,,,,,,,,,185.0776378999999,185.1270585000002,187.1419995999986,188.1074837999986,3.030689799999891,188.8418916999999,"[300, 0]",[0.27314814814814814],[-0.014814814814814815],[1],[0],[0],[0.7339125999988028],[1],['target_find'],188.84246379999968,189.85851290000028,,,,,,,,,,,,,,,,,,,,,,,,,,,,,,,,341212,001,2023-11-13_13h16.05.218,Selektive Wahrnehmung,2023.2.3,59.83129966711454,2023-11-13 13h28.28.587559 +0100,
gesicht4,1,6,22,11,,,,,189.9073714999995,,,,,,,,,,189.8592093999996,189.9073714999995,191.9074260999987,192.89052289999927,3.0320885000001,193.51081820000036,"[300, 0]",[0.275],[-0.016666666666666666],[1],[0],[0],[0.6193695000001753],[1],['target_find'],193.51219619999938,194.52509829999872,,,,,,,,,,,,,,,,,,,,,,,,,,,,,,,,341212,001,2023-11-13_13h16.05.218,Selektive Wahrnehmung,2023.2.3,59.83129966711454,2023-11-13 13h28.28.587559 +0100,
spinne2,1,7,23,1,,,,,194.72508599999856,,,,,,,,,,194.52574110000023,194.72508599999856,196.7239626999999,197.557350699999,3.032546499998716,198.52609370000027,"[300, -300]",[0.2962962962962963],[-0.2037037037037037],[1],[0],[0],[0.9676386000010098],[1],['target_find'],198.5272621999993,199.54126179999912,,,,,,,,,,,,,,,,,,,,,,,,,,,,,,,,341212,001,2023-11-13_13h16.05.218,Selektive Wahrnehmung,2023.2.3,59.83129966711454,2023-11-13 13h28.28.587559 +0100,
schlange1,1,8,24,2,,,,,199.59019939999962,,,,,,,,,,199.5418480999997,199.59019939999962,201.5901998999998,202.6067167000001,2.9991418000008707,203.9598464999999,"[300, 300]",[0.2462962962962963],[0.21481481481481482],[1],[0],[0],[1.418347700000595],[1],['target_find'],203.96063829999912,204.97573769999872,,,,,,,,,,,,,,,,,,,,,,,,,,,,,,,,341212,001,2023-11-13_13h16.05.218,Selektive Wahrnehmung,2023.2.3,59.83129966711454,2023-11-13 13h28.28.587559 +0100,
spinne1,1,9,25,0,,,,,205.00817429999915,,,,,,,,,,204.9763640000001,205.00817429999915,207.0079709999991,208.02348340000026,2.9991229999995994,208.89294439999867,"[300, -300]",[0.29814814814814816],[-0.24537037037037038],[1],[0],[0],[0.9169046999995771],[1],['target_find'],208.89406489999965,209.90929909999977,,,,,,,,,,,,,,,,,,,,,,,,,,,,,,,,341212,001,2023-11-13_13h16.05.218,Selektive Wahrnehmung,2023.2.3,59.83129966711454,2023-11-13 13h28.28.587559 +0100,
gesicht3,1,10,26,10,,,,,209.9762813999987,,,,,,,,,,209.91018199999962,209.9762813999987,211.99102370000037,212.95658159999948,3.0473572999999305,213.80828279999878,"[-300, -300]",[-0.2537037037037037],[-0.22407407407407406],[1],[0],[0],[0.851036900001418],[1],['target_find'],213.8090685999996,214.82399579999947,,,,,,,,,,,,,,,,,,,,,,,,,,,,,,,,341212,001,2023-11-13_13h16.05.218,Selektive Wahrnehmung,2023.2.3,59.83129966711454,2023-11-13 13h28.28.587559 +0100,
flugzeug1,1,11,27,13,,,,,214.85643749999872,,,,,,,,,,214.82457129999966,214.85643749999872,216.85622159999912,217.85627679999925,3.0323693999998795,218.64135159999933,"[-300, -300]",[-0.2490740740740741],[-0.22870370370370371],[1],[0],[0],[0.7845335999991221],[1],['target_find'],218.64192009999897,219.65806359999988,,,,,,,,,,,,,,,,,,,,,,,,,,,,,,,,341212,001,2023-11-13_13h16.05.218,Selektive Wahrnehmung,2023.2.3,59.83129966711454,2023-11-13 13h28.28.587559 +0100,
schlange2,1,12,28,3,,,,,219.7076094999993,,,,,,,,,,219.65870509999877,219.7076094999993,221.7241154000003,222.67285040000024,3.014862300000459,225.20841329999894,"[-300, -300]",[-0.23333333333333334],[-0.2972222222222222],[1],[0],[0],[2.5348329999997077],[1],['target_find'],225.20939199999884,226.22363659999974,,,,,,,,,,,,,,,,,,,,,,,,,,,,,,,,341212,001,2023-11-13_13h16.05.218,Selektive Wahrnehmung,2023.2.3,59.83129966711454,2023-11-13 13h28.28.587559 +0100,
schiff1,1,13,29,14,,,,,226.27242370000022,,,,,,,,,,226.22429419999935,226.27242370000022,228.27258599999914,229.23904760000005,3.0156164999989414,230.17475919999924,"[0, -300]",[-0.07685185185185185],[-0.3111111111111111],[1],[0],[0],[0.9346946000005119],[1],['target_find'],230.17584089999946,231.18950119999863,,,,,,,,,,,,,,,,,,,,,,,,,,,,,,,,341212,001,2023-11-13_13h16.05.218,Selektive Wahrnehmung,2023.2.3,59.83129966711454,2023-11-13 13h28.28.587559 +0100,
gruppe2,1,14,30,7,,,,,231.2222583999992,,,,,,,,,,231.18980910000028,231.2222583999992,233.222321199999,234.20570439999938,3.0163010000014765,235.0418181999994,"[0, 300]",[0.025925925925925925],[0.3194444444444444],[1],[0],[0],[0.8352462000002561],[1],['target_find'],235.04309099999955,236.05647059999865,,,,,,,,,,,,,,,,,,,,,,,,,,,,,,,,341212,001,2023-11-13_13h16.05.218,Selektive Wahrnehmung,2023.2.3,59.83129966711454,2023-11-13 13h28.28.587559 +0100,
gesicht2,1,15,31,9,,,,,236.0919144999989,,,,,,,,,,236.05707599999914,236.0919144999989,238.10560029999942,239.07198219999918,3.015592400000969,239.64170899999954,"[0, 300]",[0.01574074074074074],[0.2601851851851852],[1],[0],[0],[0.5688410999991902],[1],['target_find'],239.64302729999872,240.65625629999886,,,,,,,,,,,,,,,,,,,,,,,,,,,,,,,,341212,001,2023-11-13_13h16.05.218,Selektive Wahrnehmung,2023.2.3,59.83129966711454,2023-11-13 13h28.28.587559 +0100,
gesicht1,2,0,32,8,,,,,240.7053509999987,,,,,,,,,,240.65684379999948,240.7053509999987,242.70530659999895,243.70540129999972,2.9991037999989203,244.7064864999993,"[-300, -300]",[-0.2222222222222222],[-0.25555555555555554],[1],[0],[0],[1.0502076000011584],[1],['target_find'],244.70701759999974,245.72339949999878,,,,,,,,,,,,,,,,,,,,,,,,,,,,,,,,341212,001,2023-11-13_13h16.05.218,Selektive Wahrnehmung,2023.2.3,59.83129966711454,2023-11-13 13h28.28.587559 +0100,
gesicht3,2,1,33,10,,,,,245.77481879999868,,,,,,,,,,245.7239697999994,245.77481879999868,247.7889679,248.75496849999945,3.0316454999992857,249.6918912000001,"[-300, 300]",[-0.25833333333333336],[0.24814814814814815],[1],[0],[0],[0.9358439000006911],[1],['target_find'],249.6936681999996,250.70591459999923,,,,,,,,,,,,,,,,,,,,,,,,,,,,,,,,341212,001,2023-11-13_13h16.05.218,Selektive Wahrnehmung,2023.2.3,59.83129966711454,2023-11-13 13h28.28.587559 +0100,
gesicht4,2,2,34,11,,,,,250.75495640000008,,,,,,,,,,250.70651339999858,250.75495640000008,252.754771599999,253.73794369999996,3.032084099999338,254.59104149999985,"[-300, 0]",[-0.28703703703703703],[0.03611111111111111],[1],[0],[0],[0.8521235999996861],[1],['target_find'],254.5925126000002,255.6065880999995,,,,,,,,,,,,,,,,,,,,,,,,,,,,,,,,341212,001,2023-11-13_13h16.05.218,Selektive Wahrnehmung,2023.2.3,59.83129966711454,2023-11-13 13h28.28.587559 +0100,
schlange2,2,3,35,3,,,,,255.64126869999927,,,,,,,,,,255.60733900000014,255.64126869999927,257.6546363999987,258.62125339999875,3.0147395999993023,259.8903118999988,"[-300, 0]",[-0.25555555555555554],[-0.016666666666666666],[1],[0],[0],[1.2683127999989665],[1],['target_find'],259.8912154999998,260.9052888999995,,,,,,,,,,,,,,,,,,,,,,,,,,,,,,,,341212,001,2023-11-13_13h16.05.218,Selektive Wahrnehmung,2023.2.3,59.83129966711454,2023-11-13 13h28.28.587559 +0100,
auto1,2,4,36,12,,,,,260.93792719999874,,,,,,,,,,260.9058108999998,260.93792719999874,262.93771449999986,263.93753619999916,2.9991162000005716,265.00809539999864,"[0, -300]",[0.05],[-0.20555555555555555],[1],[0],[0],[1.102551099998891],[1],['target_find'],265.0092007000003,266.02183289999994,,,,,,,,,,,,,,,,,,,,,,,,,,,,,,,,341212,001,2023-11-13_13h16.05.218,Selektive Wahrnehmung,2023.2.3,59.83129966711454,2023-11-13 13h28.28.587559 +0100,
spinne1,2,5,37,0,,,,,266.0741676999987,,,,,,,,,,266.0223307999986,266.0741676999987,268.0888727999991,269.0543323999991,3.0327221999996254,271.2576149999986,"[0, 300]",[-0.0787037037037037],[0.2601851851851852],[1],[0],[0],[2.202154700000392],[1],['target_find'],271.2590122999991,272.27168379999966,,,,,,,,,,,,,,,,,,,,,,,,,,,,,,,,341212,001,2023-11-13_13h16.05.218,Selektive Wahrnehmung,2023.2.3,59.83129966711454,2023-11-13 13h28.28.587559 +0100,
zug1,2,6,38,15,,,,,272.32055729999956,,,,,,,,,,272.2722912999998,272.32055729999956,274.320630799999,275.3038937000001,2.999007200000051,276.7220285000003,"[0, -300]",[-0.025925925925925925],[-0.2824074074074074],[1],[0],[0],[1.4503541000012774],[1],['target_find'],276.722565099999,277.73807829999896,,,,,,,,,,,,,,,,,,,,,,,,,,,,,,,,341212,001,2023-11-13_13h16.05.218,Selektive Wahrnehmung,2023.2.3,59.83129966711454,2023-11-13 13h28.28.587559 +0100,
gruppe2,2,7,39,7,,,,,277.7870404999994,,,,,,,,,,277.73873379999895,277.7870404999994,279.7870860999992,280.7702696999986,2.999000400001023,281.6400555,"[-300, 0]",[-0.22314814814814815],[-0.05555555555555555],[1],[0],[0],[0.9017176999986987],[1],['target_find'],281.6411131999994,282.65479199999936,,,,,,,,,,,,,,,,,,,,,,,,,,,,,,,,341212,001,2023-11-13_13h16.05.218,Selektive Wahrnehmung,2023.2.3,59.83129966711454,2023-11-13 13h28.28.587559 +0100,
spinne2,2,8,40,1,,,,,282.8715338000002,,,,,,,,,,282.6554823999995,282.8715338000002,284.8715792999992,285.67022259999976,3.0155006000004505,286.38919069999974,"[300, -300]",[0.1935185185185185],[-0.24444444444444444],[1],[0],[0],[0.7181370999987848],[1],['target_find'],286.39034530000026,287.40459779999946,,,,,,,,,,,,,,,,,,,,,,,,,,,,,,,,341212,001,2023-11-13_13h16.05.218,Selektive Wahrnehmung,2023.2.3,59.83129966711454,2023-11-13 13h28.28.587559 +0100,
person2,2,9,41,5,,,,,287.46980110000004,,,,,,,,,,287.405364799999,287.46980110000004,289.4698279999993,290.46975120000025,3.065234400000918,291.4228414999998,"[0, -300]",[0.08148148148148149],[-0.2814814814814815],[1],[0],[0],[0.9523525999993581],[1],['target_find'],291.42381489999934,292.4380979999987,,,,,,,,,,,,,,,,,,,,,,,,,,,,,,,,341212,001,2023-11-13_13h16.05.218,Selektive Wahrnehmung,2023.2.3,59.83129966711454,2023-11-13 13h28.28.587559 +0100,
gesicht2,2,10,42,9,,,,,292.4727915000003,,,,,,,,,,292.43867899999896,292.4727915000003,294.4874669000001,295.4695566999999,3.031540700001642,296.37334910000027,"[0, -300]",[0.06296296296296296],[-0.24074074074074073],[1],[0],[0],[0.9028612000001885],[1],['target_find'],296.3747473000003,297.38868029999867,,,,,,,,,,,,,,,,,,,,,,,,,,,,,,,,341212,001,2023-11-13_13h16.05.218,Selektive Wahrnehmung,2023.2.3,59.83129966711454,2023-11-13 13h28.28.587559 +0100,
schlange1,2,11,43,2,,,,,297.43921690000025,,,,,,,,,,297.38942379999935,297.43921690000025,299.45401349999884,300.43618830000014,3.0475731999995332,302.3389498999986,"[300, 0]",[0.2324074074074074],[-0.020370370370370372],[1],[0],[0],[1.9019705999999132],[1],['target_find'],302.3401080000003,303.35402929999873,,,,,,,,,,,,,,,,,,,,,,,,,,,,,,,,341212,001,2023-11-13_13h16.05.218,Selektive Wahrnehmung,2023.2.3,59.83129966711454,2023-11-13 13h28.28.587559 +0100,
flugzeug1,2,12,44,13,,,,,303.4025716999986,,,,,,,,,,303.3547858000002,303.4025716999986,305.402682599999,306.3858205999986,3.032035399999586,307.4048946999992,"[-300, 300]",[-0.22870370370370371],[0.25277777777777777],[1],[0],[0],[1.0180363999988913],[1],['target_find'],307.4059605000002,308.42046870000013,,,,,,,,,,,,,,,,,,,,,,,,,,,,,,,,341212,001,2023-11-13_13h16.05.218,Selektive Wahrnehmung,2023.2.3,59.83129966711454,2023-11-13 13h28.28.587559 +0100,
person1,2,13,45,4,,,,,308.4689858999991,,,,,,,,,,308.42121489999954,308.4689858999991,310.46904969999923,311.4524282000002,3.0322319000006246,312.52106230000027,"[-300, -300]",[-0.2490740740740741],[-0.1935185185185185],[1],[0],[0],[1.0676741999996011],[1],['target_find'],312.52191239999956,313.53690649999953,,,,,,,,,,,,,,,,,,,,,,,,,,,,,,,,341212,001,2023-11-13_13h16.05.218,Selektive Wahrnehmung,2023.2.3,59.83129966711454,2023-11-13 13h28.28.587559 +0100,
schiff1,2,14,46,14,,,,,313.5688332999998,,,,,,,,,,313.5376933999996,313.5688332999998,315.56897449999997,316.56890679999924,3.032297400000971,317.7380639999992,"[300, -300]",[0.1712962962962963],[-0.24351851851851852],[1],[0],[0],[1.1681143999994674],[1],['target_find'],317.73903900000005,318.75363300000026,,,,,,,,,,,,,,,,,,,,,,,,,,,,,,,,341212,001,2023-11-13_13h16.05.218,Selektive Wahrnehmung,2023.2.3,59.83129966711454,2023-11-13 13h28.28.587559 +0100,
gruppe1,2,15,47,6,,,,,318.805108999999,,,,,,,,,,318.75427599999966,318.805108999999,320.81978639999943,321.76878359999864,3.015227199999572,322.6876586999988,"[300, 0]",[0.2601851851851852],[-0.0712962962962963],[1],[0],[0],[0.9183570999994117],[1],['target_find'],322.68813339999906,323.7039939999995,,,,,,,,,,,,,,,,,,,,,,,,,,,,,,,,341212,001,2023-11-13_13h16.05.218,Selektive Wahrnehmung,2023.2.3,59.83129966711454,2023-11-13 13h28.28.587559 +0100,
gruppe1,3,0,48,6,,,,,323.7382691999992,,,,,,,,,,323.70448380000016,323.7382691999992,325.7529779999986,326.71860620000007,3.014689499999804,327.5545057999989,"[0, -300]",[0.032407407407407406],[-0.262037037037037],[1],[0],[0],[0.8350868999987142],[1],['target_find'],327.5555484999986,328.5692339999987,,,,,,,,,,,,,,,,,,,,,,,,,,,,,,,,341212,001,2023-11-13_13h16.05.218,Selektive Wahrnehmung,2023.2.3,59.83129966711454,2023-11-13 13h28.28.587559 +0100,
spinne2,3,1,49,1,,,,,328.7682186999991,,,,,,,,,,328.5698233000003,328.7682186999991,330.76815589999933,331.6181297999992,3.048979999999574,332.387021999999,"[-300, -300]",[-0.3074074074074074],[-0.26666666666666666],[1],[0],[0],[0.7682502999996359],[1],['target_find'],332.387781899999,333.40354730000035,,,,,,,,,,,,,,,,,,,,,,,,,,,,,,,,341212,001,2023-11-13_13h16.05.218,Selektive Wahrnehmung,2023.2.3,59.83129966711454,2023-11-13 13h28.28.587559 +0100,
flugzeug1,3,2,50,13,,,,,333.4694127999992,,,,,,,,,,333.40432489999876,333.4694127999992,335.46812469999895,336.46927349999896,3.0658079000004363,338.45406039999943,"[300, 0]",[0.29259259259259257],[-0.06851851851851852],[1],[0],[0],[1.9839654999996128],[1],['target_find'],338.45522919999894,339.46912820000034,,,,,,,,,,,,,,,,,,,,,,,,,,,,,,,,341212,001,2023-11-13_13h16.05.218,Selektive Wahrnehmung,2023.2.3,59.83129966711454,2023-11-13 13h28.28.587559 +0100,
person2,3,3,51,5,,,,,339.51782119999916,,,,,,,,,,339.4698685000003,339.51782119999916,341.5178438999992,342.5179270999997,3.0490212999993673,343.7703571999991,"[-300, 0]",[-0.2101851851851852],[-0.017592592592592594],[1],[0],[0],[1.251452499998777],[1],['target_find'],343.7712593999986,344.78634779999993,,,,,,,,,,,,,,,,,,,,,,,,,,,,,,,,341212,001,2023-11-13_13h16.05.218,Selektive Wahrnehmung,2023.2.3,59.83129966711454,2023-11-13 13h28.28.587559 +0100,
gesicht1,3,4,52,8,,,,,344.8186937999999,,,,,,,,,,344.78691849999996,344.8186937999999,346.8355630999995,347.8173936000003,2.9993278000001737,348.62027209999906,"[300, 0]",[0.287962962962963],[-0.06388888888888888],[1],[0],[0],[0.833509399999457],[1],['target_find'],348.6216457999999,349.6354124999998,,,,,,,,,,,,,,,,,,,,,,,,,,,,,,,,341212,001,2023-11-13_13h16.05.218,Selektive Wahrnehmung,2023.2.3,59.83129966711454,2023-11-13 13h28.28.587559 +0100,
gesicht3,3,5,53,10,,,,,349.6840023999994,,,,,,,,,,349.63621149999926,349.6840023999994,351.6841629999999,352.66723679999996,3.0318903000006685,353.6040157999996,"[300, 300]",[0.3194444444444444],[0.2175925925925926],[1],[0],[0],[0.9358652999999322],[1],['target_find'],353.6053245000003,354.6179622999989,,,,,,,,,,,,,,,,,,,,,,,,,,,,,,,,341212,001,2023-11-13_13h16.05.218,Selektive Wahrnehmung,2023.2.3,59.83129966711454,2023-11-13 13h28.28.587559 +0100,
gesicht4,3,6,54,11,,,,,354.65351329999976,,,,,,,,,,354.61836609999955,354.65351329999976,356.66856749999897,357.63350119999996,3.015604899999744,358.23655209999924,"[300, 0]",[0.2657407407407407],[0.000925925925925926],[1],[0],[0],[0.6021415999985038],[1],['target_find'],358.23784969999906,359.2515894999997,,,,,,,,,,,,,,,,,,,,,,,,,,,,,,,,341212,001,2023-11-13_13h16.05.218,Selektive Wahrnehmung,2023.2.3,59.83129966711454,2023-11-13 13h28.28.587559 +0100,
spinne1,3,7,55,0,,,,,359.28378919999886,,,,,,,,,,359.2523584999999,359.28378919999886,361.28367049999906,362.2835572999993,3.0320359999986977,363.9536528999997,"[-300, 300]",[-0.26851851851851855],[0.2537037037037037],[1],[0],[0],[1.6692352999998548],[1],['target_find'],363.9547910000001,364.96790619999956,,,,,,,,,,,,,,,,,,,,,,,,,,,,,,,,341212,001,2023-11-13_13h16.05.218,Selektive Wahrnehmung,2023.2.3,59.83129966711454,2023-11-13 13h28.28.587559 +0100,
auto1,3,8,56,12,,,,,365.0032661999994,,,,,,,,,,364.9684679999991,365.0032661999994,367.017225399999,367.9999783000003,3.032157700001335,369.0523944999986,"[-300, 300]",[-0.21666666666666667],[0.1962962962962963],[1],[0],[0],[1.0515550000000076],[1],['target_find'],369.0535373999992,370.0673893000003,,,,,,,,,,,,,,,,,,,,,,,,,,,,,,,,341212,001,2023-11-13_13h16.05.218,Selektive Wahrnehmung,2023.2.3,59.83129966711454,2023-11-13 13h28.28.587559 +0100,
person1,3,9,57,4,,,,,370.10000129999935,,,,,,,,,,370.0679117999989,370.10000129999935,372.09984209999857,373.09977309999886,3.032469099998707,373.76895069999955,"[-300, 0]",[-0.22314814814814815],[-0.006481481481481481],[1],[0],[0],[0.6684031999993749],[1],['target_find'],373.76985520000017,374.7845092999996,,,,,,,,,,,,,,,,,,,,,,,,,,,,,,,,341212,001,2023-11-13_13h16.05.218,Selektive Wahrnehmung,2023.2.3,59.83129966711454,2023-11-13 13h28.28.587559 +0100,
schiff1,3,10,58,14,,,,,374.83609629999955,,,,,,,,,,374.7852772999995,374.83609629999955,376.8496852999997,377.8164421999991,3.0320011999992857,378.76728809999986,"[300, 0]",[0.18981481481481483],[-0.04722222222222222],[1],[0],[0],[0.9503502000006847],[1],['target_find'],378.76775009999983,379.78519699999924,,,,,,,,,,,,,,,,,,,,,,,,,,,,,,,,341212,001,2023-11-13_13h16.05.218,Selektive Wahrnehmung,2023.2.3,59.83129966711454,2023-11-13 13h28.28.587559 +0100,
schlange2,3,11,59,3,,,,,379.8357268999989,,,,,,,,,,379.78593309999997,379.8357268999989,381.8502771000003,382.8159801999991,3.0308366999997816,383.7860185999998,"[300, 0]",[0.225],[-0.000925925925925926],[1],[0],[0],[0.9691061000012269],[1],['target_find'],383.7874042000003,384.80026739999994,,,,,,,,,,,,,,,,,,,,,,,,,,,,,,,,341212,001,2023-11-13_13h16.05.218,Selektive Wahrnehmung,2023.2.3,59.83129966711454,2023-11-13 13h28.28.587559 +0100,
zug1,3,12,60,15,,,,,384.84946669999954,,,,,,,,,,384.80082459999903,384.84946669999954,386.8492331999987,387.84930449999956,2.9990474000005634,388.9529313000003,"[0, 300]",[0.014814814814814815],[0.22592592592592592],[1],[0],[0],[1.1524712999998883],[1],['target_find'],388.9539043999994,389.9671335999992,,,,,,,,,,,,,,,,,,,,,,,,,,,,,,,,341212,001,2023-11-13_13h16.05.218,Selektive Wahrnehmung,2023.2.3,59.83129966711454,2023-11-13 13h28.28.587559 +0100,
gesicht2,3,13,61,9,,,,,390.0338002999997,,,,,,,,,,389.96785629999977,390.0338002999997,392.03372449999915,392.98222480000004,3.015157800000452,394.1010325999996,"[-300, -300]",[-0.25092592592592594],[-0.21574074074074073],[1],[0],[0],[1.1180949000008695],[1],['target_find'],394.10191309999936,395.11563319999914,,,,,,,,,,,,,,,,,,,,,,,,,,,,,,,,341212,001,2023-11-13_13h16.05.218,Selektive Wahrnehmung,2023.2.3,59.83129966711454,2023-11-13 13h28.28.587559 +0100,
gruppe2,3,14,62,7,,,,,395.1487576999989,,,,,,,,,,395.1158775999993,395.1487576999989,397.1487326999995,398.1323064999997,3.017104799999288,399.1331102999993,"[-300, 300]",[-0.23425925925925925],[0.19814814814814816],[1],[0],[0],[0.9998875000001135],[1],['target_find'],399.1336106999988,400.1495395999991,,,,,,,,,,,,,,,,,,,,,,,,,,,,,,,,341212,001,2023-11-13_13h16.05.218,Selektive Wahrnehmung,2023.2.3,59.83129966711454,2023-11-13 13h28.28.587559 +0100,
schlange1,3,15,63,2,,,,,400.18504349999967,,,,,,,,,,400.15004079999926,400.18504349999967,402.199934799999,403.18180779999966,2.9997342999995453,404.8346633000001,"[300, 300]",[0.21388888888888888],[0.22037037037037038],[1],[0],[0],[1.684501599998839],[1],['target_find'],404.83575459999884,405.84971179999957,,,,,,,,,,,,,,,,,,,,,,,,,,,,,,,,341212,001,2023-11-13_13h16.05.218,Selektive Wahrnehmung,2023.2.3,59.83129966711454,2023-11-13 13h28.28.587559 +0100,
spinne2,4,0,64,1,,,,,406.048337799999,,,,,,,,,,405.8504757999999,406.048337799999,408.04831449999983,408.8983903999997,3.0489744000005885,409.8178122999998,"[300, 0]",[0.29444444444444445],[-0.024074074074074074],[1],[0],[0],[0.9183362999992823],[1],['target_find'],409.81894739999916,410.8328872000002,,,,,,,,,,,,,,,,,,,,,,,,,,,,,,,,341212,001,2023-11-13_13h16.05.218,Selektive Wahrnehmung,2023.2.3,59.83129966711454,2023-11-13 13h28.28.587559 +0100,
auto1,4,1,65,12,,,,,410.9147959999991,,,,,,,,,,410.8337543999987,410.9147959999991,412.9148348999988,413.8981807,3.065367299999707,414.6502564000002,"[-300, 0]",[-0.32592592592592595],[-0.000925925925925926],[1],[0],[0],[0.7513818000006722],[1],['target_find'],414.6511319000001,415.66609900000003,,,,,,,,,,,,,,,,,,,,,,,,,,,,,,,,341212,001,2023-11-13_13h16.05.218,Selektive Wahrnehmung,2023.2.3,59.83129966711454,2023-11-13 13h28.28.587559 +0100,
person2,4,2,66,5,,,,,415.70102620000034,,,,,,,,,,415.6667460999997,415.70102620000034,417.71471029999884,418.6812668999992,3.015251699998771,419.4989532999989,"[-300, -300]",[-0.2638888888888889],[-0.22592592592592592],[1],[0],[0],[0.8171522000011464],[1],['target_find'],419.49950030000036,420.5145886999999,,,,,,,,,,,,,,,,,,,,,,,,,,,,,,,,341212,001,2023-11-13_13h16.05.218,Selektive Wahrnehmung,2023.2.3,59.83129966711454,2023-11-13 13h28.28.587559 +0100,
person1,4,3,67,4,,,,,420.54770199999984,,,,,,,,,,420.5148560999987,420.54770199999984,422.5476318000001,423.53067629999896,3.0161657000007835,424.13344770000003,"[-300, 0]",[-0.28703703703703703],[-0.003703703703703704],[1],[0],[0],[0.6019689000004291],[1],['target_find'],424.1345007,425.14848189999975,,,,,,,,,,,,,,,,,,,,,,,,,,,,,,,,341212,001,2023-11-13_13h16.05.218,Selektive Wahrnehmung,2023.2.3,59.83129966711454,2023-11-13 13h28.28.587559 +0100,
zug1,4,4,68,15,,,,,425.18420270000024,,,,,,,,,,425.1487473999987,425.18420270000024,427.19872919999943,428.18093659999977,3.0325553999991826,429.10035809999863,"[-300, 300]",[-0.2611111111111111],[0.2037037037037037],[1],[0],[0],[0.9186286999993172],[1],['target_find'],429.1015021000003,430.11520029999883,,,,,,,,,,,,,,,,,,,,,,,,,,,,,,,,341212,001,2023-11-13_13h16.05.218,Selektive Wahrnehmung,2023.2.3,59.83129966711454,2023-11-13 13h28.28.587559 +0100,
gesicht2,4,5,69,9,,,,,430.16405849999865,,,,,,,,,,430.1158588999988,430.16405849999865,432.1639603000003,433.1469347000002,3.0318023999989236,434.41687809999894,"[-300, 300]",[-0.225],[0.2388888888888889],[1],[0],[0],[1.2691202999994857],[1],['target_find'],434.41801750000013,435.43231879999985,,,,,,,,,,,,,,,,,,,,,,,,,,,,,,,,341212,001,2023-11-13_13h16.05.218,Selektive Wahrnehmung,2023.2.3,59.83129966711454,2023-11-13 13h28.28.587559 +0100,
schlange2,4,6,70,3,,,,,435.48334350000005,,,,,,,,,,435.4330391000003,435.48334350000005,437.49840779999977,438.44689239999934,3.014622299999246,439.4831723999996,"[0, 300]",[-0.040740740740740744],[0.24166666666666667],[1],[0],[0],[1.0354928000015207],[1],['target_find'],439.4843179999989,440.4982920000002,,,,,,,,,,,,,,,,,,,,,,,,,,,,,,,,341212,001,2023-11-13_13h16.05.218,Selektive Wahrnehmung,2023.2.3,59.83129966711454,2023-11-13 13h28.28.587559 +0100,
flugzeug1,4,7,71,13,,,,,440.5466540999987,,,,,,,,,,440.4990350999997,440.5466540999987,442.5468970000002,443.5468516000001,3.0486256000003777,445.0837541000001,"[0, -300]",[-0.06388888888888888],[-0.2462962962962963],[1],[0],[0],[1.5362186000002112],[1],['target_find'],445.0845215999998,446.0994584,,,,,,,,,,,,,,,,,,,,,,,,,,,,,,,,341212,001,2023-11-13_13h16.05.218,Selektive Wahrnehmung,2023.2.3,59.83129966711454,2023-11-13 13h28.28.587559 +0100,
schlange1,4,8,72,2,,,,,446.1499590000003,,,,,,,,,,446.10032409999985,446.1499590000003,448.16339659999903,449.1296715999997,3.0302604000007705,449.8493706999998,"[-300, 0]",[-0.27037037037037037],[-0.037037037037037035],[1],[0],[0],[0.7189054999998916],[1],['target_find'],449.85043249999944,450.8637319999998,,,,,,,,,,,,,,,,,,,,,,,,,,,,,,,,341212,001,2023-11-13_13h16.05.218,Selektive Wahrnehmung,2023.2.3,59.83129966711454,2023-11-13 13h28.28.587559 +0100,
gesicht4,4,9,73,11,,,,,450.91304089999903,,,,,,,,,,450.8643409999986,450.91304089999903,452.9130566999993,453.89640619999955,3.032751900000221,454.88240099999894,"[300, 300]",[0.22037037037037038],[0.25],[1],[0],[0],[0.9851466999989498],[1],['target_find'],454.88348229999974,455.896908499999,,,,,,,,,,,,,,,,,,,,,,,,,,,,,,,,341212,001,2023-11-13_13h16.05.218,Selektive Wahrnehmung,2023.2.3,59.83129966711454,2023-11-13 13h28.28.587559 +0100,
spinne1,4,10,74,0,,,,,455.9492806999988,,,,,,,,,,455.8974301999988,455.9492806999988,457.9639217999993,458.9127953999996,3.0159682000012253,460.39883759999975,"[0, -300]",[0.001851851851851852],[-0.21851851851851853],[1],[0],[0],[1.4852526999984548],[1],['target_find'],460.39992469999925,461.4135656999988,,,,,,,,,,,,,,,,,,,,,,,,,,,,,,,,341212,001,2023-11-13_13h16.05.218,Selektive Wahrnehmung,2023.2.3,59.83129966711454,2023-11-13 13h28.28.587559 +0100,
gruppe2,4,11,75,7,,,,,461.4461209000001,,,,,,,,,,461.41409229999954,461.4461209000001,463.44614609999917,464.4460818999996,3.0326017000006686,465.91558429999895,"[-300, 300]",[-0.19722222222222222],[0.25092592592592594],[1],[0],[0],[1.4686832999996113],[1],['target_find'],465.9167211999993,466.9303041000003,,,,,,,,,,,,,,,,,,,,,,,,,,,,,,,,341212,001,2023-11-13_13h16.05.218,Selektive Wahrnehmung,2023.2.3,59.83129966711454,2023-11-13 13h28.28.587559 +0100,
gesicht1,4,12,76,8,,,,,466.97930689999885,,,,,,,,,,466.93108930000017,466.97930689999885,468.97919720000027,469.96225869999944,3.0320044999989477,470.73025719999896,"[-300, 0]",[-0.2722222222222222],[-0.01574074074074074],[1],[0],[0],[0.7674833000000945],[1],['target_find'],470.730786099999,471.7476134999997,,,,,,,,,,,,,,,,,,,,,,,,,,,,,,,,341212,001,2023-11-13_13h16.05.218,Selektive Wahrnehmung,2023.2.3,59.83129966711454,2023-11-13 13h28.28.587559 +0100,
schiff1,4,13,77,14,,,,,471.78226220000033,,,,,,,,,,471.74814890000016,471.78226220000033,473.7956283000003,474.76201839999885,3.0144811999998637,475.4320855999995,"[-300, 0]",[-0.2722222222222222],[-0.01574074074074074],[1],[0],[0],[0.6691398000002664],[1],['target_find'],475.4334930999994,476.4468218999991,,,,,,,,,,,,,,,,,,,,,,,,,,,,,,,,341212,001,2023-11-13_13h16.05.218,Selektive Wahrnehmung,2023.2.3,59.83129966711454,2023-11-13 13h28.28.587559 +0100,
gesicht3,4,14,78,10,,,,,476.47878239999955,,,,,,,,,,476.4475688000002,476.47878239999955,478.4788534999989,479.4784904999997,3.031922600001053,480.2984731999986,"[300, 0]",[0.3416666666666667],[-0.025925925925925925],[1],[0],[0],[0.8187861999995221],[1],['target_find'],480.29967000000033,481.3128575999999,,,,,,,,,,,,,,,,,,,,,,,,,,,,,,,,341212,001,2023-11-13_13h16.05.218,Selektive Wahrnehmung,2023.2.3,59.83129966711454,2023-11-13 13h28.28.587559 +0100,
gruppe1,4,15,79,6,,,,,481.34828769999876,,,,,,,,,,481.3136806000002,481.34828769999876,483.3620456999997,484.34512579999864,3.0323369999987335,485.31526999999915,"[300, -300]",[0.2490740740740741],[-0.24351851851851852],[1],[0],[0],[0.9691915000003064],[1],['target_find'],485.31665780000003,486.32963129999916,,,,,,,,,,,,,,,,,,,,,,,,,,,,,,,,341212,001,2023-11-13_13h16.05.218,Selektive Wahrnehmung,2023.2.3,59.83129966711454,2023-11-13 13h28.28.587559 +0100,
,,,,,0,0,0,0,493.1643647000001,,,,,,,,,,,,,,,,,,,,,,,,,,,486.3579143999996,490.5321886999991,490.5322094999992,493.11310559999947,493.1136573999993,509.6693736999987,3.0,1.0,gesicht3,,,,,,,,,,,,,,,,,,,,,,,341212,001,2023-11-13_13h16.05.218,Selektive Wahrnehmung,2023.2.3,59.83129966711454,2023-11-13 13h28.28.587559 +0100,
,,,,,1,0,1,0,509.7302456999987,,,,,,,,,,,,,,,,,,,,,,,,,,,,,,,509.6697465999987,515.7356172999989,1.0,5.0,schlange1,,,,,,,,,,,,,,,,,,,,,,,341212,001,2023-11-13_13h16.05.218,Selektive Wahrnehmung,2023.2.3,59.83129966711454,2023-11-13 13h28.28.587559 +0100,
,,,,,2,0,2,0,515.7968358999988,,,,,,,,,,,,,,,,,,,,,,,,,,,,,,,515.7359333999993,526.6845593999988,3.0,1.0,gesicht1,,,,,,,,,,,,,,,,,,,,,,,341212,001,2023-11-13_13h16.05.218,Selektive Wahrnehmung,2023.2.3,59.83129966711454,2023-11-13 13h28.28.587559 +0100,
,,,,,3,0,3,0,526.7460518999997,,,,,,,,,,,,,,,,,,,,,,,,,,,,,,,526.6848852999992,533.3182691999991,1.0,5.0,auto1,,,,,,,,,,,,,,,,,,,,,,,341212,001,2023-11-13_13h16.05.218,Selektive Wahrnehmung,2023.2.3,59.83129966711454,2023-11-13 13h28.28.587559 +0100,
,,,,,4,0,4,0,533.3626659000001,,,,,,,,,,,,,,,,,,,,,,,,,,,,,,,533.318595499999,541.5183481999993,1.0,3.0,person2,,,,,,,,,,,,,,,,,,,,,,,341212,001,2023-11-13_13h16.05.218,Selektive Wahrnehmung,2023.2.3,59.83129966711454,2023-11-13 13h28.28.587559 +0100,
,,,,,,,,,,,,,,,,,,,,,,,,,,,,,,,,,,,,,,,,,,,,,541.5223767999996,549.5802941999991, 20,1.0,549.5803161999993,563.5839232999988,4.0,1.0,563.5839443999994,566.6278600999995,566.6278920999994,585.370699699999,4.0,4.0,4.0,2.0,585.3707235000002,593.7990166,3.0,3.0,593.7990386999991,594.9931586000002,,,,,,,,
