Target,trials.thisRepN,trials.thisTrialN,trials.thisN,trials.thisIndex,trials_2.thisRepN,trials_2.thisTrialN,trials_2.thisN,trials_2.thisIndex,thisRow.t,notes,Data_transparency.started,key_resp_data_transp.started,Data_transparency.stopped,key_resp_data_transp.keys,key_resp_data_transp.rt,key_resp_data_transp.duration,instructions.started,instructions.stopped,trial.started,target_show.started,target_show.stopped,target_find.started,mouse.started,trial.stopped,target_position_x_y,mouse.x,mouse.y,mouse.leftButton,mouse.midButton,mouse.rightButton,mouse.time,mouse.corr,mouse.clicked_name,feedback.started,feedback.stopped,instructions_survey.started,instructions_survey.stopped,instructions_ratings.started,instructions_ratings.stopped,survey_ratings.started,survey_ratings.stopped,furcht.response,liebenswert.response,rated_image,survey_gen.started,survey_gen.stopped,age.text,gender.response,survey_games.started,survey_games.stopped,pc_frequency.response,reaction_games_frequency.response,instructions_neuro.started,instructions_neuro.stopped,survey_neuro.started,survey_neuro.stopped,neuro_1_rev.response,neuro_2.response,neuro_3.response,neuro_4_rev.response,survey_fear.started,survey_fear.stopped,specific_fear_spider.response,specific_fear_snake.response,thanks.started,thanks.stopped,participant,session,date,expName,psychopyVersion,frameRate,expStart,
,,,,,,,,,,,0.0041475072503089905,0.02171432226896286,7.956364847719669,z,7.921203343197703,None,,,,,,,,,,,,,,,,,,,,,,,,,,,,,,,,,,,,,,,,,,,,,,,,,,,420485,001,2023-11-06_13h31.43.494,Selektive Wahrnehmung,2023.2.3,60.01437360083003,2023-11-06 13h32.50.451386 +0100,
,,,,,,,,,,,,,,,,,7.956410359591246,30.074058640748262,,,,,,,,,,,,,,,,,,,,,,,,,,,,,,,,,,,,,,,,,,,,,,,,,420485,001,2023-11-06_13h31.43.494,Selektive Wahrnehmung,2023.2.3,60.01437360083003,2023-11-06 13h32.50.451386 +0100,
schiff1,0,0,0,14,,,,,30.12451366893947,,,,,,,,,,30.09892320074141,30.12451366893947,32.1390812844038,33.094394536688924,3.020460484549403,34.290498992428184,"[-300, 0]",[-0.22037037037037038],[0.05555555555555555],[1],[0],[0],[1.1954735536128283],[1],['target_find'],34.29179350472987,35.3068864941597,,,,,,,,,,,,,,,,,,,,,,,,,,,,,,,,420485,001,2023-11-06_13h31.43.494,Selektive Wahrnehmung,2023.2.3,60.01437360083003,2023-11-06 13h32.50.451386 +0100,
spinne1,0,1,1,0,,,,,35.59832444228232,,,,,,,,,,35.30773812532425,35.59832444228232,37.60567623376846,38.32477558590472,3.018053786829114,39.189704705029726,"[300, 0]",[0.19166666666666668],[0.053703703703703705],[1],[0],[0],[0.8642896842211485],[1],['target_find'],39.190218698233366,40.20563595555723,,,,,,,,,,,,,,,,,,,,,,,,,,,,,,,,420485,001,2023-11-06_13h31.43.494,Selektive Wahrnehmung,2023.2.3,60.01437360083003,2023-11-06 13h32.50.451386 +0100,
schlange2,0,2,2,3,,,,,40.26894282177091,,,,,,,,,,40.205905040726066,40.26894282177091,42.272116670385,43.205030085518956,2.9994774721562862,45.60743951424956,"[0, -300]",[0.021296296296296296],[-0.20833333333333334],[1],[0],[0],[2.4016963224858046],[1],['target_find'],45.60835258476436,46.6229867618531,,,,,,,,,,,,,,,,,,,,,,,,,,,,,,,,420485,001,2023-11-06_13h31.43.494,Selektive Wahrnehmung,2023.2.3,60.01437360083003,2023-11-06 13h32.50.451386 +0100,
gruppe1,0,3,3,6,,,,,46.66550347208977,,,,,,,,,,46.62356930784881,46.66550347208977,48.672464434057474,49.625595984980464,3.0029204078018665,51.10806415788829,"[300, -300]",[0.19444444444444445],[-0.22592592592592592],[1],[0],[0],[1.481526656076312],[1],['target_find'],51.108853209763765,52.123092859983444,,,,,,,,,,,,,,,,,,,,,,,,,,,,,,,,420485,001,2023-11-06_13h31.43.494,Selektive Wahrnehmung,2023.2.3,60.01437360083003,2023-11-06 13h32.50.451386 +0100,
gesicht4,0,4,4,11,,,,,52.1590795442462,,,,,,,,,,52.12369389459491,52.1590795442462,54.17243826575577,55.12289346382022,2.999965012073517,56.73980076238513,"[300, 300]",[0.2111111111111111],[0.287962962962963],[1],[0],[0],[1.6163116693496704],[1],['target_find'],56.74029143154621,57.75698897987604,,,,,,,,,,,,,,,,,,,,,,,,,,,,,,,,420485,001,2023-11-06_13h31.43.494,Selektive Wahrnehmung,2023.2.3,60.01437360083003,2023-11-06 13h32.50.451386 +0100,
gruppe2,0,5,5,7,,,,,57.794895673170686,,,,,,,,,,57.75785853154957,57.794895673170686,59.80526828020811,60.776970740407705,3.0201089084148407,61.8900923486799,"[300, 300]",[0.1962962962962963],[0.19166666666666668],[1],[0],[0],[1.1125003769993782],[1],['target_find'],61.890574768185616,62.90651967190206,,,,,,,,,,,,,,,,,,,,,,,,,,,,,,,,420485,001,2023-11-06_13h31.43.494,Selektive Wahrnehmung,2023.2.3,60.01437360083003,2023-11-06 13h32.50.451386 +0100,
auto1,0,6,6,12,,,,,63.18722547404468,,,,,,,,,,62.907131515443325,63.18722547404468,65.18920806236565,65.90943950973451,3.003093918785453,66.99008279107511,"[-300, -300]",[-0.2518518518518518],[-0.24537037037037038],[1],[0],[0],[1.0799938905984163],[1],['target_find'],66.99056037515402,68.00706563703716,,,,,,,,,,,,,,,,,,,,,,,,,,,,,,,,420485,001,2023-11-06_13h31.43.494,Selektive Wahrnehmung,2023.2.3,60.01437360083003,2023-11-06 13h32.50.451386 +0100,
schlange1,0,7,7,2,,,,,68.11832327023149,,,,,,,,,,68.00792409665883,68.11832327023149,70.12228332646191,71.02435284294188,3.017481481656432,72.43984223529696,"[-300, 300]",[-0.2101851851851852],[0.2324074074074074],[1],[0],[0],[1.4148118402808905],[1],['target_find'],72.4403360337019,73.45690757222474,,,,,,,,,,,,,,,,,,,,,,,,,,,,,,,,420485,001,2023-11-06_13h31.43.494,Selektive Wahrnehmung,2023.2.3,60.01437360083003,2023-11-06 13h32.50.451386 +0100,
spinne2,0,8,8,1,,,,,73.91777747496963,,,,,,,,,,73.45763290859759,73.91777747496963,75.92299051769078,76.46278479509056,3.0060055069625378,78.02453943900764,"[-300, 300]",[-0.23796296296296296],[0.2824074074074074],[1],[0],[0],[1.5609613247215748],[1],['target_find'],78.02541524730623,79.03985002823174,,,,,,,,,,,,,,,,,,,,,,,,,,,,,,,,420485,001,2023-11-06_13h31.43.494,Selektive Wahrnehmung,2023.2.3,60.01437360083003,2023-11-06 13h32.50.451386 +0100,
person1,0,9,9,4,,,,,79.16276909224689,,,,,,,,,,79.04044253006577,79.16276909224689,81.1725930031389,82.04066098481417,3.0009893029928207,83.10829256661236,"[-300, 300]",[-0.29074074074074074],[0.3055555555555556],[1],[0],[0],[1.0668302979320288],[1],['target_find'],83.10907763801515,84.12331074662507,,,,,,,,,,,,,,,,,,,,,,,,,,,,,,,,420485,001,2023-11-06_13h31.43.494,Selektive Wahrnehmung,2023.2.3,60.01437360083003,2023-11-06 13h32.50.451386 +0100,
flugzeug1,0,10,10,13,,,,,84.25348858721554,,,,,,,,,,84.12390239350498,84.25348858721554,86.2558867521584,87.12531950324774,3.0021606516093016,87.910899002105,"[-300, -300]",[-0.20092592592592592],[-0.19444444444444445],[1],[0],[0],[0.784201642498374],[1],['target_find'],87.91288841702044,88.9233529008925,,,,,,,,,,,,,,,,,,,,,,,,,,,,,,,,420485,001,2023-11-06_13h31.43.494,Selektive Wahrnehmung,2023.2.3,60.01437360083003,2023-11-06 13h32.50.451386 +0100,
gesicht2,0,11,11,9,,,,,88.96259705908597,,,,,,,,,,88.92401253059506,88.96259705908597,90.97249606437981,91.92765941284597,3.004486283287406,93.14024922065437,"[300, 300]",[0.2462962962962963],[0.25092592592592594],[1],[0],[0],[1.2119335886090994],[1],['target_find'],93.14073476940393,94.15730858407915,,,,,,,,,,,,,,,,,,,,,,,,,,,,,,,,420485,001,2023-11-06_13h31.43.494,Selektive Wahrnehmung,2023.2.3,60.01437360083003,2023-11-06 13h32.50.451386 +0100,
zug1,0,12,12,15,,,,,94.19761969894171,,,,,,,,,,94.15816192142665,94.19761969894171,96.20552189275622,97.17325747013092,3.016018006950617,98.09074025973678,"[-300, 0]",[-0.24722222222222223],[-0.01574074074074074],[1],[0],[0],[0.9168717991560698],[1],['target_find'],98.09143686667085,99.10724865086377,,,,,,,,,,,,,,,,,,,,,,,,,,,,,,,,420485,001,2023-11-06_13h31.43.494,Selektive Wahrnehmung,2023.2.3,60.01437360083003,2023-11-06 13h32.50.451386 +0100,
gesicht3,0,13,13,10,,,,,99.14333005435765,,,,,,,,,,99.10799844935536,99.14333005435765,101.15619213320315,102.1275808494538,3.0205395594239235,102.8747493326664,"[0, 300]",[0.009259259259259259],[0.31203703703703706],[1],[0],[0],[0.7465190924704075],[1],['target_find'],102.87522521056235,103.89041633158922,,,,,,,,,,,,,,,,,,,,,,,,,,,,,,,,420485,001,2023-11-06_13h31.43.494,Selektive Wahrnehmung,2023.2.3,60.01437360083003,2023-11-06 13h32.50.451386 +0100,
person2,0,14,14,5,,,,,103.93407253175974,,,,,,,,,,103.89112943783402,103.93407253175974,105.93937176093459,106.90755790099502,2.999001594260335,107.75741508044302,"[-300, 300]",[-0.2518518518518518],[0.28888888888888886],[1],[0],[0],[0.8670897707343102],[1],['target_find'],107.75808352790773,108.77332471311092,,,,,,,,,,,,,,,,,,,,,,,,,,,,,,,,420485,001,2023-11-06_13h31.43.494,Selektive Wahrnehmung,2023.2.3,60.01437360083003,2023-11-06 13h32.50.451386 +0100,
gesicht1,0,15,15,8,,,,,108.80808600224555,,,,,,,,,,108.77392005734146,108.80808600224555,110.82267665863037,111.77569784596562,3.002600973471999,112.52445637993515,"[0, 300]",[-0.05648148148148148],[0.2824074074074074],[1],[0],[0],[0.7478963807225227],[1],['target_find'],112.52522324770689,113.54020985215902,,,,,,,,,,,,,,,,,,,,,,,,,,,,,,,,420485,001,2023-11-06_13h31.43.494,Selektive Wahrnehmung,2023.2.3,60.01437360083003,2023-11-06 13h32.50.451386 +0100,
zug1,1,0,16,15,,,,,113.57476719468832,,,,,,,,,,113.54087858460844,113.57476719468832,115.58933538012207,116.54324261657894,3.003178684040904,117.70811006613076,"[-300, -300]",[-0.2222222222222222],[-0.1925925925925926],[1],[0],[0],[1.1641020067036152],[1],['target_find'],117.70888518169522,118.72339192777872,,,,,,,,,,,,,,,,,,,,,,,,,,,,,,,,420485,001,2023-11-06_13h31.43.494,Selektive Wahrnehmung,2023.2.3,60.01437360083003,2023-11-06 13h32.50.451386 +0100,
gesicht4,1,1,17,11,,,,,118.77472276426852,,,,,,,,,,118.72392924502492,118.77472276426852,120.78949489817023,121.72638287581503,3.003116389736533,122.32398852333426,"[300, 0]",[0.2777777777777778],[0.049074074074074076],[1],[0],[0],[0.5970085952430964],[1],['target_find'],122.32450650073588,123.34066615998745,,,,,,,,,,,,,,,,,,,,,,,,,,,,,,,,420485,001,2023-11-06_13h31.43.494,Selektive Wahrnehmung,2023.2.3,60.01437360083003,2023-11-06 13h32.50.451386 +0100,
gesicht1,1,2,18,8,,,,,123.37670859508216,,,,,,,,,,123.34151238761842,123.37670859508216,125.38946229964495,126.35568633116782,3.015079904347658,126.92392264679074,"[300, 300]",[0.3296296296296296],[0.2222222222222222],[1],[0],[0],[0.5677066780626774],[1],['target_find'],126.92439454235137,127.94054623879492,,,,,,,,,,,,,,,,,,,,,,,,,,,,,,,,420485,001,2023-11-06_13h31.43.494,Selektive Wahrnehmung,2023.2.3,60.01437360083003,2023-11-06 13h32.50.451386 +0100,
gruppe1,1,3,19,6,,,,,127.97676844336092,,,,,,,,,,127.9413136728108,127.97676844336092,129.98957676067948,130.9596664123237,2.999089488759637,131.94069073721766,"[-300, 300]",[-0.22407407407407406],[0.25925925925925924],[1],[0],[0],[1.0001163389533758],[1],['target_find'],131.94122208282351,132.9574042148888,,,,,,,,,,,,,,,,,,,,,,,,,,,,,,,,420485,001,2023-11-06_13h31.43.494,Selektive Wahrnehmung,2023.2.3,60.01437360083003,2023-11-06 13h32.50.451386 +0100,
auto1,1,4,20,12,,,,,132.99831494130194,,,,,,,,,,132.95825015567243,132.99831494130194,135.0060040857643,135.97492494806647,3.017706762999296,136.64103855751455,"[-300, 0]",[-0.2222222222222222],[0.03333333333333333],[1],[0],[0],[0.6653015166521072],[1],['target_find'],136.64183529093862,137.65707761235535,,,,,,,,,,,,,,,,,,,,,,,,,,,,,,,,420485,001,2023-11-06_13h31.43.494,Selektive Wahrnehmung,2023.2.3,60.01437360083003,2023-11-06 13h32.50.451386 +0100,
person2,1,5,21,5,,,,,137.6899396572262,,,,,,,,,,137.65770083479583,137.6899396572262,139.6896887756884,140.66092986427248,3.0039833802729845,141.340963691473,"[-300, 300]",[-0.3194444444444444],[0.2935185185185185],[1],[0],[0],[0.6793656628578901],[1],['target_find'],141.34165574796498,142.35704171657562,,,,,,,,,,,,,,,,,,,,,,,,,,,,,,,,420485,001,2023-11-06_13h31.43.494,Selektive Wahrnehmung,2023.2.3,60.01437360083003,2023-11-06 13h32.50.451386 +0100,
spinne1,1,6,22,0,,,,,142.39123297668993,,,,,,,,,,142.35770248435438,142.39123297668993,144.40620991028845,145.35948254726827,3.002613205462694,146.3740564212203,"[-300, 300]",[-0.2574074074074074],[0.30277777777777776],[1],[0],[0],[1.0139168035238981],[1],['target_find'],146.37453258410096,147.3903321363032,,,,,,,,,,,,,,,,,,,,,,,,,,,,,,,,420485,001,2023-11-06_13h31.43.494,Selektive Wahrnehmung,2023.2.3,60.01437360083003,2023-11-06 13h32.50.451386 +0100,
person1,1,7,23,4,,,,,147.42740625701845,,,,,,,,,,147.39096645079553,147.42740625701845,149.43982659094036,150.39500131644309,3.00483956374228,151.3741437457502,"[-300, -300]",[-0.31296296296296294],[-0.22314814814814815],[1],[0],[0],[0.9784426912665367],[1],['target_find'],151.37469557113945,152.39070248417556,,,,,,,,,,,,,,,,,,,,,,,,,,,,,,,,420485,001,2023-11-06_13h31.43.494,Selektive Wahrnehmung,2023.2.3,60.01437360083003,2023-11-06 13h32.50.451386 +0100,
schiff1,1,8,24,14,,,,,152.42738833650947,,,,,,,,,,152.39142127893865,152.42738833650947,154.43978193216026,155.40988666005433,2.9991301633417606,156.42423041723669,"[300, 0]",[0.2962962962962963],[-0.03611111111111111],[1],[0],[0],[1.033391397446394],[1],['target_find'],156.42492617107928,157.44060654006898,,,,,,,,,,,,,,,,,,,,,,,,,,,,,,,,420485,001,2023-11-06_13h31.43.494,Selektive Wahrnehmung,2023.2.3,60.01437360083003,2023-11-06 13h32.50.451386 +0100,
gesicht3,1,9,25,10,,,,,157.47771906107664,,,,,,,,,,157.44120985083282,157.47771906107664,159.4894402269274,160.4416527338326,3.0012379083782434,161.4237991962582,"[-300, -300]",[-0.18425925925925926],[-0.20092592592592592],[1],[0],[0],[0.9814854115247726],[1],['target_find'],161.42429356463253,162.44025724194944,,,,,,,,,,,,,,,,,,,,,,,,,,,,,,,,420485,001,2023-11-06_13h31.43.494,Selektive Wahrnehmung,2023.2.3,60.01437360083003,2023-11-06 13h32.50.451386 +0100,
gesicht2,1,10,26,9,,,,,162.47402467764914,,,,,,,,,,162.44086993858218,162.47402467764914,164.48960036970675,165.4442227035761,3.004097444936633,166.5081035811454,"[0, -300]",[0.009259259259259259],[-0.2935185185185185],[1],[0],[0],[1.0632027611136436],[1],['target_find'],166.50882010161877,167.52389147132635,,,,,,,,,,,,,,,,,,,,,,,,,,,,,,,,420485,001,2023-11-06_13h31.43.494,Selektive Wahrnehmung,2023.2.3,60.01437360083003,2023-11-06 13h32.50.451386 +0100,
spinne2,1,11,27,1,,,,,167.8349391259253,,,,,,,,,,167.52452265657485,167.8349391259253,169.83990953490138,170.52639459632337,3.0027070734649897,171.3576251156628,"[-300, 0]",[-0.2351851851851852],[0.06666666666666667],[1],[0],[0],[0.830508878454566],[1],['target_find'],171.35826170444489,172.3737623039633,,,,,,,,,,,,,,,,,,,,,,,,,,,,,,,,420485,001,2023-11-06_13h31.43.494,Selektive Wahrnehmung,2023.2.3,60.01437360083003,2023-11-06 13h32.50.451386 +0100,
schlange1,1,12,28,2,,,,,172.42364502698183,,,,,,,,,,172.37436532974243,172.42364502698183,174.42331962101161,175.37849946692586,3.0048702843487263,176.15804871171713,"[0, 300]",[-0.011111111111111112],[0.2222222222222222],[1],[0],[0],[0.7788665741682053],[1],['target_find'],176.15874275937676,177.1735751964152,,,,,,,,,,,,,,,,,,,,,,,,,,,,,,,,420485,001,2023-11-06_13h31.43.494,Selektive Wahrnehmung,2023.2.3,60.01437360083003,2023-11-06 13h32.50.451386 +0100,
flugzeug1,1,13,29,13,,,,,177.197511324659,,,,,,,,,,177.17385480552912,177.197511324659,179.20599492639303,180.17807569913566,3.004662638530135,181.2910030297935,"[0, 300]",[0.05],[0.2675925925925926],[1],[0],[0],[1.1122648548334837],[1],['target_find'],181.29147976078093,182.30695561505854,,,,,,,,,,,,,,,,,,,,,,,,,,,,,,,,420485,001,2023-11-06_13h31.43.494,Selektive Wahrnehmung,2023.2.3,60.01437360083003,2023-11-06 13h32.50.451386 +0100,
schlange2,1,14,30,3,,,,,182.33986743725836,,,,,,,,,,182.30743803456426,182.33986743725836,184.3398793824017,185.30599048919976,2.9991102535277605,186.19075317308307,"[300, 0]",[0.2777777777777778],[0.05648148148148148],[1],[0],[0],[0.884247550740838],[1],['target_find'],186.19124953076243,187.20653764903545,,,,,,,,,,,,,,,,,,,,,,,,,,,,,,,,420485,001,2023-11-06_13h31.43.494,Selektive Wahrnehmung,2023.2.3,60.01437360083003,2023-11-06 13h32.50.451386 +0100,
gruppe2,1,15,31,7,,,,,187.23308271728456,,,,,,,,,,187.20688950829208,187.23308271728456,189.23939741775393,190.2059983406216,2.9995431806892157,191.55812482908368,"[300, 0]",[0.23796296296296296],[-0.05462962962962963],[1],[0],[0],[1.3515385407954454],[1],['target_find'],191.5588416326791,192.57431009039283,,,,,,,,,,,,,,,,,,,,,,,,,,,,,,,,420485,001,2023-11-06_13h31.43.494,Selektive Wahrnehmung,2023.2.3,60.01437360083003,2023-11-06 13h32.50.451386 +0100,
gesicht4,2,0,32,11,,,,,192.60996340215206,,,,,,,,,,192.57508292980492,192.60996340215206,194.62313666567206,195.59116209298372,3.017026936635375,196.55810634046793,"[-300, 300]",[-0.2722222222222222],[0.24814814814814815],[1],[0],[0],[0.9662189111113548],[1],['target_find'],196.55881148204207,197.57431919313967,,,,,,,,,,,,,,,,,,,,,,,,,,,,,,,,420485,001,2023-11-06_13h31.43.494,Selektive Wahrnehmung,2023.2.3,60.01437360083003,2023-11-06 13h32.50.451386 +0100,
gesicht2,2,1,33,9,,,,,197.61071746982634,,,,,,,,,,197.575045382604,197.61071746982634,199.6233189944178,200.57821041345596,3.0040414091199636,201.59083128161728,"[300, 300]",[0.35555555555555557],[0.2777777777777778],[1],[0],[0],[1.012016136199236],[1],['target_find'],201.59131483919919,202.6079267691821,,,,,,,,,,,,,,,,,,,,,,,,,,,,,,,,420485,001,2023-11-06_13h31.43.494,Selektive Wahrnehmung,2023.2.3,60.01437360083003,2023-11-06 13h32.50.451386 +0100,
person1,2,2,34,4,,,,,202.64339604601264,,,,,,,,,,202.6088096909225,202.64339604601264,204.6569077987224,205.62866259738803,3.0209076330065727,206.274537589401,"[-300, 0]",[-0.33611111111111114],[0.09537037037037037],[1],[0],[0],[0.6451342962682247],[1],['target_find'],206.27517702430487,207.2912431024015,,,,,,,,,,,,,,,,,,,,,,,,,,,,,,,,420485,001,2023-11-06_13h31.43.494,Selektive Wahrnehmung,2023.2.3,60.01437360083003,2023-11-06 13h32.50.451386 +0100,
zug1,2,3,35,15,,,,,207.32715810649097,,,,,,,,,,207.2919453997165,207.32715810649097,209.3399780858308,210.30736237205565,3.016280835494399,211.10788012109697,"[300, -300]",[0.20833333333333334],[-0.1527777777777778],[1],[0],[0],[0.7998376376926899],[1],['target_find'],211.10835457593203,212.1246840506792,,,,,,,,,,,,,,,,,,,,,,,,,,,,,,,,420485,001,2023-11-06_13h31.43.494,Selektive Wahrnehmung,2023.2.3,60.01437360083003,2023-11-06 13h32.50.451386 +0100,
spinne1,2,4,36,0,,,,,212.1626988351345,,,,,,,,,,212.12553255446255,212.1626988351345,214.1736124586314,215.14470904879272,3.0201885532587767,215.8074360433966,"[-300, -300]",[-0.3675925925925926],[-0.2824074074074074],[1],[0],[0],[0.6620562709867954],[1],['target_find'],215.80797421559691,216.824847266078,,,,,,,,,,,,,,,,,,,,,,,,,,,,,,,,420485,001,2023-11-06_13h31.43.494,Selektive Wahrnehmung,2023.2.3,60.01437360083003,2023-11-06 13h32.50.451386 +0100,
schlange2,2,5,37,3,,,,,216.861171586439,,,,,,,,,,216.8256038930267,216.861171586439,218.87328671105206,219.84076401032507,3.016108460724354,221.0580918341875,"[0, -300]",[-0.009259259259259259],[-0.25092592592592594],[1],[0],[0],[1.2166189830750227],[1],['target_find'],221.05870879627764,222.07429785840213,,,,,,,,,,,,,,,,,,,,,,,,,,,,,,,,420485,001,2023-11-06_13h31.43.494,Selektive Wahrnehmung,2023.2.3,60.01437360083003,2023-11-06 13h32.50.451386 +0100,
gruppe2,2,6,38,7,,,,,222.11164248734713,,,,,,,,,,222.07496716082096,222.11164248734713,224.1233576796949,225.07780735380948,3.003665653988719,226.02624383941293,"[300, 300]",[0.22962962962962963],[0.17407407407407408],[1],[0],[0],[0.9478152561932802],[1],['target_find'],226.02672768197954,227.04128932580352,,,,,,,,,,,,,,,,,,,,,,,,,,,,,,,,420485,001,2023-11-06_13h31.43.494,Selektive Wahrnehmung,2023.2.3,60.01437360083003,2023-11-06 13h32.50.451386 +0100,
person2,2,7,39,5,,,,,227.07813873328269,,,,,,,,,,227.04201693832874,227.07813873328269,229.0902962386608,230.0450664833188,3.003955788910389,230.725296292454,"[300, 300]",[0.2712962962962963],[0.23333333333333334],[1],[0],[0],[0.6794308014214039],[1],['target_find'],230.72607823461294,231.7414676155895,,,,,,,,,,,,,,,,,,,,,,,,,,,,,,,,420485,001,2023-11-06_13h31.43.494,Selektive Wahrnehmung,2023.2.3,60.01437360083003,2023-11-06 13h32.50.451386 +0100,
spinne2,2,8,40,1,,,,,232.00634940341115,,,,,,,,,,231.74232550524175,232.00634940341115,234.00697490014136,234.76174946688116,3.0205298885703087,236.29184612818062,"[0, -300]",[0.040740740740740744],[-0.26296296296296295],[1],[0],[0],[1.5292527098208666],[1],['target_find'],236.2925711814314,237.3075768444687,,,,,,,,,,,,,,,,,,,,,,,,,,,,,,,,420485,001,2023-11-06_13h31.43.494,Selektive Wahrnehmung,2023.2.3,60.01437360083003,2023-11-06 13h32.50.451386 +0100,
gruppe1,2,9,41,6,,,,,237.3366483617574,,,,,,,,,,237.30800010077655,237.3366483617574,239.33981680497527,240.31149281188846,3.0040872041136026,241.1261711344123,"[300, 0]",[0.2824074074074074],[-0.03518518518518519],[1],[0],[0],[0.8138667978346348],[1],['target_find'],241.1269707120955,242.14110426418483,,,,,,,,,,,,,,,,,,,,,,,,,,,,,,,,420485,001,2023-11-06_13h31.43.494,Selektive Wahrnehmung,2023.2.3,60.01437360083003,2023-11-06 13h32.50.451386 +0100,
gesicht3,2,10,42,10,,,,,242.17784160003066,,,,,,,,,,242.14175024069846,242.17784160003066,244.19007903523743,245.14487857744098,3.003904305398464,246.25821750238538,"[300, -300]",[0.30833333333333335],[-0.2537037037037037],[1],[0],[0],[1.1126278080046177],[1],['target_find'],246.25878525525331,247.27411319687963,,,,,,,,,,,,,,,,,,,,,,,,,,,,,,,,420485,001,2023-11-06_13h31.43.494,Selektive Wahrnehmung,2023.2.3,60.01437360083003,2023-11-06 13h32.50.451386 +0100,
schlange1,2,11,43,2,,,,,247.30284423194826,,,,,,,,,,247.27448695898056,247.30284423194826,249.30688763223588,250.27854031324387,3.004629358649254,251.626051383093,"[300, -300]",[0.2361111111111111],[-0.32407407407407407],[1],[0],[0],[1.3465960063040257],[1],['target_find'],251.62711777165532,252.64104310795665,,,,,,,,,,,,,,,,,,,,,,,,,,,,,,,,420485,001,2023-11-06_13h31.43.494,Selektive Wahrnehmung,2023.2.3,60.01437360083003,2023-11-06 13h32.50.451386 +0100,
schiff1,2,12,44,14,,,,,252.67554925009608,,,,,,,,,,252.64161683619022,252.67554925009608,254.69016351550817,255.64234444871545,3.0014927722513676,256.64278590865433,"[0, 300]",[0.027777777777777776],[0.21574074074074073],[1],[0],[0],[0.9998196605592966],[1],['target_find'],256.64328824169934,257.65834140591323,,,,,,,,,,,,,,,,,,,,,,,,,,,,,,,,420485,001,2023-11-06_13h31.43.494,Selektive Wahrnehmung,2023.2.3,60.01437360083003,2023-11-06 13h32.50.451386 +0100,
flugzeug1,2,13,45,13,,,,,257.6984042003751,,,,,,,,,,257.6591711360961,257.6984042003751,259.70702291466296,260.659630516544,3.0014105681329966,261.74220034852624,"[-300, -300]",[-0.2222222222222222],[-0.16574074074074074],[1],[0],[0],[1.0818396601825953],[1],['target_find'],261.742975179106,262.75729987956583,,,,,,,,,,,,,,,,,,,,,,,,,,,,,,,,420485,001,2023-11-06_13h31.43.494,Selektive Wahrnehmung,2023.2.3,60.01437360083003,2023-11-06 13h32.50.451386 +0100,
auto1,2,14,46,12,,,,,262.7875245399773,,,,,,,,,,262.75770692154765,262.7875245399773,264.7902136929333,265.759189452976,3.002122536301613,266.6259094439447,"[-300, 300]",[-0.26851851851851855],[0.21481481481481482],[1],[0],[0],[0.8659349195659161],[1],['target_find'],266.6266131643206,267.6417991667986,,,,,,,,,,,,,,,,,,,,,,,,,,,,,,,,420485,001,2023-11-06_13h31.43.494,Selektive Wahrnehmung,2023.2.3,60.01437360083003,2023-11-06 13h32.50.451386 +0100,
gesicht1,2,15,47,8,,,,,267.6779440008104,,,,,,,,,,267.64264994487166,267.6779440008104,269.69054296799004,270.6615064367652,3.0198475029319525,271.47514539398253,"[300, 0]",[0.22777777777777777],[0.002777777777777778],[1],[0],[0],[0.8129136189818382],[1],['target_find'],271.4758343230933,272.49151013977826,,,,,,,,,,,,,,,,,,,,,,,,,,,,,,,,420485,001,2023-11-06_13h31.43.494,Selektive Wahrnehmung,2023.2.3,60.01437360083003,2023-11-06 13h32.50.451386 +0100,
gruppe1,3,0,48,6,,,,,272.5272012837231,,,,,,,,,,272.4922377541661,272.5272012837231,274.54061006754637,275.49506713822484,3.0036904010921717,276.3916178327054,"[-300, -300]",[-0.24166666666666667],[-0.2212962962962963],[1],[0],[0],[0.8959098383784294],[1],['target_find'],276.3921195939183,277.407966081053,,,,,,,,,,,,,,,,,,,,,,,,,,,,,,,,420485,001,2023-11-06_13h31.43.494,Selektive Wahrnehmung,2023.2.3,60.01437360083003,2023-11-06 13h32.50.451386 +0100,
gesicht4,3,1,49,11,,,,,277.4424190316349,,,,,,,,,,277.40862770192325,277.4424190316349,279.4573726411909,280.4103133287281,3.002576796337962,281.3419222738594,"[-300, 300]",[-0.2824074074074074],[0.19537037037037036],[1],[0],[0],[0.9308309871703386],[1],['target_find'],281.34254009090364,282.3577408846468,,,,,,,,,,,,,,,,,,,,,,,,,,,,,,,,420485,001,2023-11-06_13h31.43.494,Selektive Wahrnehmung,2023.2.3,60.01437360083003,2023-11-06 13h32.50.451386 +0100,
gesicht3,3,2,50,10,,,,,282.3924595080316,,,,,,,,,,282.3583040870726,282.3924595080316,284.4074170999229,285.36252583377063,3.004963582381606,286.0420126710087,"[-300, 0]",[-0.22314814814814815],[0.049074074074074076],[1],[0],[0],[0.6787410192191601],[1],['target_find'],286.0427052974701,287.0582750160247,,,,,,,,,,,,,,,,,,,,,,,,,,,,,,,,420485,001,2023-11-06_13h31.43.494,Selektive Wahrnehmung,2023.2.3,60.01437360083003,2023-11-06 13h32.50.451386 +0100,
gruppe2,3,3,51,7,,,,,287.09749073162675,,,,,,,,,,287.0589593946934,287.09749073162675,289.1073544640094,290.062212318182,3.004090618342161,292.10875849053264,"[300, -300]",[0.2],[-0.1962962962962963],[1],[0],[0],[2.045855537056923],[1],['target_find'],292.10952052101493,293.124915022403,,,,,,,,,,,,,,,,,,,,,,,,,,,,,,,,420485,001,2023-11-06_13h31.43.494,Selektive Wahrnehmung,2023.2.3,60.01437360083003,2023-11-06 13h32.50.451386 +0100,
person1,3,4,52,4,,,,,293.16029128432274,,,,,,,,,,293.1256446260959,293.16029128432274,295.17375667206943,296.1272073723376,3.0025381110608578,296.89364223368466,"[-300, 0]",[-0.35],[0.021296296296296296],[1],[0],[0],[0.7652703393250704],[1],['target_find'],296.8949515391141,297.9086029548198,,,,,,,,,,,,,,,,,,,,,,,,,,,,,,,,420485,001,2023-11-06_13h31.43.494,Selektive Wahrnehmung,2023.2.3,60.01437360083003,2023-11-06 13h32.50.451386 +0100,
zug1,3,5,53,15,,,,,297.9478920567781,,,,,,,,,,297.9094335362315,297.9478920567781,299.9574650861323,300.92588134109974,3.0174536053091288,302.4587854836136,"[0, -300]",[0.0962962962962963],[-0.19537037037037036],[1],[0],[0],[1.53224878013134],[1],['target_find'],302.4592653438449,303.47420274093747,,,,,,,,,,,,,,,,,,,,,,,,,,,,,,,,420485,001,2023-11-06_13h31.43.494,Selektive Wahrnehmung,2023.2.3,60.01437360083003,2023-11-06 13h32.50.451386 +0100,
schiff1,3,6,54,14,,,,,303.50096910633147,,,,,,,,,,303.47456740029156,303.50096910633147,305.5074834898114,306.47600868716836,3.0020067673176527,307.34266240336,"[300, -300]",[0.26666666666666666],[-0.22962962962962963],[1],[0],[0],[0.8659235425293446],[1],['target_find'],307.3431419786066,308.358538756147,,,,,,,,,,,,,,,,,,,,,,,,,,,,,,,,420485,001,2023-11-06_13h31.43.494,Selektive Wahrnehmung,2023.2.3,60.01437360083003,2023-11-06 13h32.50.451386 +0100,
auto1,3,7,55,12,,,,,308.3968891855329,,,,,,,,,,308.3592882696539,308.3968891855329,310.4074546471238,311.37616615742445,3.017824523150921,312.6759193148464,"[-300, -300]",[-0.2064814814814815],[-0.2777777777777778],[1],[0],[0],[1.2990710567682981],[1],['target_find'],312.6763934865594,313.69203346408904,,,,,,,,,,,,,,,,,,,,,,,,,,,,,,,,420485,001,2023-11-06_13h31.43.494,Selektive Wahrnehmung,2023.2.3,60.01437360083003,2023-11-06 13h32.50.451386 +0100,
gesicht1,3,8,56,8,,,,,313.7312841657549,,,,,,,,,,313.69288850948215,313.7312841657549,315.7407473977655,316.70915540494025,3.017305977642536,317.74284120462835,"[0, -300]",[-0.006481481481481481],[-0.32592592592592595],[1],[0],[0],[1.032755946740508],[1],['target_find'],317.7437306679785,318.7584865875542,,,,,,,,,,,,,,,,,,,,,,,,,,,,,,,,420485,001,2023-11-06_13h31.43.494,Selektive Wahrnehmung,2023.2.3,60.01437360083003,2023-11-06 13h32.50.451386 +0100,
gesicht2,3,9,57,9,,,,,318.79333036765456,,,,,,,,,,318.75921903550625,318.79333036765456,320.8074371814728,321.77614215016365,2.9990050084888935,322.4589772000909,"[300, 300]",[0.1685185185185185],[0.10555555555555556],[1],[0],[0],[0.700525313615799],[0],['dis2'],322.45968603901565,323.475296150893,,,,,,,,,,,,,,,,,,,,,,,,,,,,,,,,420485,001,2023-11-06_13h31.43.494,Selektive Wahrnehmung,2023.2.3,60.01437360083003,2023-11-06 13h32.50.451386 +0100,
spinne1,3,10,58,0,,,,,323.51479261368513,,,,,,,,,,323.47602091915905,323.51479261368513,325.5241881478578,326.4792294688523,3.0041059777140617,327.1588238272816,"[300, 0]",[0.20555555555555555],[0.03888888888888889],[1],[0],[0],[0.6788855195045471],[1],['target_find'],327.1595210041851,328.1745329257101,,,,,,,,,,,,,,,,,,,,,,,,,,,,,,,,420485,001,2023-11-06_13h31.43.494,Selektive Wahrnehmung,2023.2.3,60.01437360083003,2023-11-06 13h32.50.451386 +0100,
person2,3,11,59,5,,,,,328.19572955556214,,,,,,,,,,328.174786651507,328.19572955556214,330.20752353966236,331.1773941665888,3.002942878752947,332.35891564562917,"[-300, -300]",[-0.22407407407407406],[-0.2222222222222222],[1],[0],[0],[1.1809463296085596],[1],['target_find'],332.35953716002405,333.37538222409785,,,,,,,,,,,,,,,,,,,,,,,,,,,,,,,,420485,001,2023-11-06_13h31.43.494,Selektive Wahrnehmung,2023.2.3,60.01437360083003,2023-11-06 13h32.50.451386 +0100,
schlange1,3,12,60,2,,,,,333.41240030899644,,,,,,,,,,333.3762230463326,333.41240030899644,335.4243754837662,336.3959462456405,2.999011266976595,337.5588584151119,"[300, 300]",[0.20185185185185187],[0.18796296296296297],[1],[0],[0],[1.183430964127183],[1],['target_find'],337.55949187651277,338.57492819055915,,,,,,,,,,,,,,,,,,,,,,,,,,,,,,,,420485,001,2023-11-06_13h31.43.494,Selektive Wahrnehmung,2023.2.3,60.01437360083003,2023-11-06 13h32.50.451386 +0100,
flugzeug1,3,13,61,13,,,,,338.6120737083256,,,,,,,,,,338.57554458640516,338.6120737083256,340.6240995153785,341.57376907393336,3.0153805632144213,342.6585692483932,"[-300, -300]",[-0.2712962962962963],[-0.19722222222222222],[1],[0],[0],[1.0678019672632217],[1],['target_find'],342.6590954735875,343.6755321845412,,,,,,,,,,,,,,,,,,,,,,,,,,,,,,,,420485,001,2023-11-06_13h31.43.494,Selektive Wahrnehmung,2023.2.3,60.01437360083003,2023-11-06 13h32.50.451386 +0100,
spinne2,3,14,62,1,,,,,343.88639198988676,,,,,,,,,,343.6763599216938,343.88639198988676,345.891111234203,346.69774286448956,2.99905563890934,347.7421818599105,"[300, -300]",[0.23425925925925925],[-0.25],[1],[0],[0],[1.066546991467476],[1],['target_find'],347.74276554211974,348.75834322720766,,,,,,,,,,,,,,,,,,,,,,,,,,,,,,,,420485,001,2023-11-06_13h31.43.494,Selektive Wahrnehmung,2023.2.3,60.01437360083003,2023-11-06 13h32.50.451386 +0100,
schlange2,3,15,63,3,,,,,348.79299415275455,,,,,,,,,,348.7589163854718,348.79299415275455,350.80753076449037,351.7625794801861,3.0044353660196066,352.95874765329063,"[0, 300]",[0.05555555555555555],[0.22777777777777777],[1],[0],[0],[1.1954695712774992],[1],['target_find'],352.95926847308874,353.97427897155285,,,,,,,,,,,,,,,,,,,,,,,,,,,,,,,,420485,001,2023-11-06_13h31.43.494,Selektive Wahrnehmung,2023.2.3,60.01437360083003,2023-11-06 13h32.50.451386 +0100,
flugzeug1,4,0,64,13,,,,,353.99760752543807,,,,,,,,,,353.9745665472001,353.99760752543807,356.0074726808816,356.9756673518568,3.00159346498549,358.10977481491864,"[300, 300]",[0.2796296296296296],[0.26666666666666666],[1],[0],[0],[1.1334330402314663],[1],['target_find'],358.1102595105767,359.1254213359207,,,,,,,,,,,,,,,,,,,,,,,,,,,,,,,,420485,001,2023-11-06_13h31.43.494,Selektive Wahrnehmung,2023.2.3,60.01437360083003,2023-11-06 13h32.50.451386 +0100,
gruppe2,4,1,65,7,,,,,359.1614796984941,,,,,,,,,,359.12614240683615,359.1614796984941,361.1743449065834,362.12922267057,3.0039495322853327,362.8265937641263,"[300, -300]",[0.2074074074074074],[-0.25833333333333336],[1],[0],[0],[0.6968004945665598],[1],['target_find'],362.8270750474185,363.8413525298238,,,,,,,,,,,,,,,,,,,,,,,,,,,,,,,,420485,001,2023-11-06_13h31.43.494,Selektive Wahrnehmung,2023.2.3,60.01437360083003,2023-11-06 13h32.50.451386 +0100,
zug1,4,2,66,15,,,,,363.8630745317787,,,,,,,,,,363.84159885905683,363.8630745317787,365.87517088092864,366.8464947436005,3.00532653555274,368.02640568837523,"[300, 300]",[0.2222222222222222],[0.2037037037037037],[1],[0],[0],[1.1790715456008911],[1],['target_find'],368.0272908844054,369.0421378277242,,,,,,,,,,,,,,,,,,,,,,,,,,,,,,,,420485,001,2023-11-06_13h31.43.494,Selektive Wahrnehmung,2023.2.3,60.01437360083003,2023-11-06 13h32.50.451386 +0100,
schiff1,4,3,67,14,,,,,369.0808603130281,,,,,,,,,,369.0428574755788,369.0808603130281,371.0912314970046,372.04581144824624,3.0038010515272617,373.1425375882536,"[-300, 300]",[-0.3453703703703704],[0.2222222222222222],[1],[0],[0],[1.096047168597579],[1],['target_find'],373.14324841834605,374.15846798568964,,,,,,,,,,,,,,,,,,,,,,,,,,,,,,,,420485,001,2023-11-06_13h31.43.494,Selektive Wahrnehmung,2023.2.3,60.01437360083003,2023-11-06 13h32.50.451386 +0100,
schlange1,4,4,68,2,,,,,374.18739443458617,,,,,,,,,,374.1590744238347,374.18739443458617,376.19050371460617,377.1583226323128,3.0000159293413162,378.0094672162086,"[300, 300]",[0.18055555555555555],[0.22962962962962963],[1],[0],[0],[0.8504087217152119],[1],['target_find'],378.0102656558156,379.0252437274903,,,,,,,,,,,,,,,,,,,,,,,,,,,,,,,,420485,001,2023-11-06_13h31.43.494,Selektive Wahrnehmung,2023.2.3,60.01437360083003,2023-11-06 13h32.50.451386 +0100,
gruppe1,4,5,69,6,,,,,379.0610688459128,,,,,,,,,,379.025840209797,379.0610688459128,381.0746005102992,382.02762539312243,3.002541810274124,382.8261426333338,"[-300, 0]",[-0.31666666666666665],[0.016666666666666666],[1],[0],[0],[0.79769092425704],[1],['target_find'],382.8270537145436,383.8425315581262,,,,,,,,,,,,,,,,,,,,,,,,,,,,,,,,420485,001,2023-11-06_13h31.43.494,Selektive Wahrnehmung,2023.2.3,60.01437360083003,2023-11-06 13h32.50.451386 +0100,
gesicht1,4,6,70,8,,,,,383.88205646537244,,,,,,,,,,383.84335531294346,383.88205646537244,385.8913717865944,386.8628435600549,2.999062182381749,387.7096867505461,"[-300, 0]",[-0.22870370370370371],[0.022222222222222223],[1],[0],[0],[0.8669546581804752],[1],['target_find'],387.71047466620803,388.7256157249212,,,,,,,,,,,,,,,,,,,,,,,,,,,,,,,,420485,001,2023-11-06_13h31.43.494,Selektive Wahrnehmung,2023.2.3,60.01437360083003,2023-11-06 13h32.50.451386 +0100,
schlange2,4,7,71,3,,,,,388.76129463873804,,,,,,,,,,388.72635073401034,388.76129463873804,390.774543562904,391.74252091906965,3.0170804113149643,392.90939314477146,"[300, 300]",[0.23796296296296296],[0.20277777777777778],[1],[0],[0],[1.1661500185728073],[1],['target_find'],392.91009231470525,393.9258235991001,,,,,,,,,,,,,,,,,,,,,,,,,,,,,,,,420485,001,2023-11-06_13h31.43.494,Selektive Wahrnehmung,2023.2.3,60.01437360083003,2023-11-06 13h32.50.451386 +0100,
gesicht4,4,8,72,11,,,,,393.96181113645434,,,,,,,,,,393.92668205685914,393.96181113645434,395.97469881363213,396.94618936255574,2.9990306068211794,397.6257717721164,"[0, 300]",[-0.012037037037037037],[0.25462962962962965],[1],[0],[0],[0.6997758001089096],[1],['target_find'],397.62647236324847,398.6420204658061,,,,,,,,,,,,,,,,,,,,,,,,,,,,,,,,420485,001,2023-11-06_13h31.43.494,Selektive Wahrnehmung,2023.2.3,60.01437360083003,2023-11-06 13h32.50.451386 +0100,
gesicht2,4,9,73,9,,,,,398.67844178155065,,,,,,,,,,398.64264340139925,398.67844178155065,400.69128707796335,401.6453302782029,3.0035399310290813,402.4101309981197,"[0, 300]",[0.027777777777777776],[0.30833333333333335],[1],[0],[0],[0.7639442533254623],[1],['target_find'],402.4109137933701,403.4253727514297,,,,,,,,,,,,,,,,,,,,,,,,,,,,,,,,420485,001,2023-11-06_13h31.43.494,Selektive Wahrnehmung,2023.2.3,60.01437360083003,2023-11-06 13h32.50.451386 +0100,
auto1,4,10,74,12,,,,,403.4607074856758,,,,,,,,,,403.4259723648429,403.4607074856758,405.4748273845762,406.425130687654,2.999920070171356,407.3268346898258,"[-300, -300]",[-0.30925925925925923],[-0.21388888888888888],[1],[0],[0],[0.9009030014276505],[1],['target_find'],407.3276012726128,408.34252302348614,,,,,,,,,,,,,,,,,,,,,,,,,,,,,,,,420485,001,2023-11-06_13h31.43.494,Selektive Wahrnehmung,2023.2.3,60.01437360083003,2023-11-06 13h32.50.451386 +0100,
spinne2,4,11,75,1,,,,,408.5300997886807,,,,,,,,,,408.3432017117739,408.5300997886807,410.5413356889039,411.3644060231745,2.9990968834608793,412.42613620497286,"[0, 300]",[0.06574074074074074],[0.2518518518518518],[1],[0],[0],[1.083372538909316],[1],['target_find'],412.4269141647965,413.4421024415642,,,,,,,,,,,,,,,,,,,,,,,,,,,,,,,,420485,001,2023-11-06_13h31.43.494,Selektive Wahrnehmung,2023.2.3,60.01437360083003,2023-11-06 13h32.50.451386 +0100,
person2,4,12,76,5,,,,,413.4773470070213,,,,,,,,,,413.4427023380995,413.4773470070213,415.49137502908707,416.4434529915452,3.001539707183838,418.4259183201939,"[-300, -300]",[-0.2740740740740741],[-0.20462962962962963],[1],[0],[0],[1.9817448258399963],[1],['target_find'],418.42639789544046,419.44225291348994,,,,,,,,,,,,,,,,,,,,,,,,,,,,,,,,420485,001,2023-11-06_13h31.43.494,Selektive Wahrnehmung,2023.2.3,60.01437360083003,2023-11-06 13h32.50.451386 +0100,
person1,4,13,77,4,,,,,419.4792624656111,,,,,,,,,,419.44292335398495,419.4792624656111,421.49150416627526,422.4612732473761,2.999232279136777,423.12573906220496,"[-300, 0]",[-0.1685185185185185],[0.004629629629629629],[1],[0],[0],[0.6833396572619677],[1],['target_find'],423.1262157931924,424.14272134006023,,,,,,,,,,,,,,,,,,,,,,,,,,,,,,,,420485,001,2023-11-06_13h31.43.494,Selektive Wahrnehmung,2023.2.3,60.01437360083003,2023-11-06 13h32.50.451386 +0100,
gesicht3,4,14,78,10,,,,,424.1831633001566,,,,,,,,,,424.14356927387416,424.1831633001566,426.19088629446924,427.16307686269283,2.999008422717452,427.9762527421117,"[-300, 0]",[-0.18796296296296297],[0.003703703703703704],[1],[0],[0],[0.8334241677075624],[1],['target_find'],427.97693512775004,428.99222011864185,,,,,,,,,,,,,,,,,,,,,,,,,,,,,,,,420485,001,2023-11-06_13h31.43.494,Selektive Wahrnehmung,2023.2.3,60.01437360083003,2023-11-06 13h32.50.451386 +0100,
spinne1,4,15,79,0,,,,,429.0283211488277,,,,,,,,,,428.9928120505065,429.0283211488277,431.0414244364947,431.9947326295078,3.002661844715476,433.0605631005019,"[-300, 0]",[-0.25],[0.004629629629629629],[1],[0],[0],[1.065120778977871],[1],['target_find'],433.06134760193527,434.07602330856025,,,,,,,,,,,,,,,,,,,,,,,,,,,,,,,,420485,001,2023-11-06_13h31.43.494,Selektive Wahrnehmung,2023.2.3,60.01437360083003,2023-11-06 13h32.50.451386 +0100,
,,,,,0,0,0,0,439.95926847308874,,,,,,,,,,,,,,,,,,,,,,,,,,,434.10114216431975,438.2926476970315,438.2926715910435,439.90893092006445,439.9098297711462,459.77185810916126,2.0,2.0,schiff1,,,,,,,,,,,,,,,,,,,,,,,420485,001,2023-11-06_13h31.43.494,Selektive Wahrnehmung,2023.2.3,60.01437360083003,2023-11-06 13h32.50.451386 +0100,
,,,,,1,0,1,0,459.8098071850836,,,,,,,,,,,,,,,,,,,,,,,,,,,,,,,459.7729043010622,470.87687926366925,1.0,2.0,flugzeug1,,,,,,,,,,,,,,,,,,,,,,,420485,001,2023-11-06_13h31.43.494,Selektive Wahrnehmung,2023.2.3,60.01437360083003,2023-11-06 13h32.50.451386 +0100,
,,,,,2,0,2,0,470.91024193167686,,,,,,,,,,,,,,,,,,,,,,,,,,,,,,,470.87717878445983,484.73710876517,1.0,3.0,gesicht3,,,,,,,,,,,,,,,,,,,,,,,420485,001,2023-11-06_13h31.43.494,Selektive Wahrnehmung,2023.2.3,60.01437360083003,2023-11-06 13h32.50.451386 +0100,
,,,,,3,0,3,0,484.7724824678153,,,,,,,,,,,,,,,,,,,,,,,,,,,,,,,484.7374273445457,493.37206729128957,1.0,4.0,zug1,,,,,,,,,,,,,,,,,,,,,,,420485,001,2023-11-06_13h31.43.494,Selektive Wahrnehmung,2023.2.3,60.01437360083003,2023-11-06 13h32.50.451386 +0100,
,,,,,4,0,4,0,493.4052755050361,,,,,,,,,,,,,,,,,,,,,,,,,,,,,,,493.3729732502252,499.6622158456594,1.0,1.0,person2,,,,,,,,,,,,,,,,,,,,,,,420485,001,2023-11-06_13h31.43.494,Selektive Wahrnehmung,2023.2.3,60.01437360083003,2023-11-06 13h32.50.451386 +0100,
,,,,,,,,,,,,,,,,,,,,,,,,,,,,,,,,,,,,,,,,,,,,,499.6682290341705,507.8949794135988,29 ,1.0,507.8950018864125,517.7466746848077,5.0,1.0,517.7467076797038,521.9430288821459,521.9430564735085,558.5544486492872,2.0,3.0,4.0,2.0,558.5544782318175,566.8083189632744,2.0,2.0,566.8083493988961,569.6770164240152,,,,,,,,
