Target,trials.thisRepN,trials.thisTrialN,trials.thisN,trials.thisIndex,trials_2.thisRepN,trials_2.thisTrialN,trials_2.thisN,trials_2.thisIndex,thisRow.t,notes,Data_transparency.started,key_resp_data_transp.started,Data_transparency.stopped,key_resp_data_transp.keys,key_resp_data_transp.rt,key_resp_data_transp.duration,instructions.started,instructions.stopped,trial.started,target_show.started,target_show.stopped,target_find.started,mouse.started,trial.stopped,target_position_x_y,mouse.x,mouse.y,mouse.leftButton,mouse.midButton,mouse.rightButton,mouse.time,mouse.corr,mouse.clicked_name,feedback.started,feedback.stopped,instructions_survey.started,instructions_survey.stopped,instructions_ratings.started,instructions_ratings.stopped,survey_ratings.started,survey_ratings.stopped,furcht.response,liebenswert.response,rated_image,survey_gen.started,survey_gen.stopped,age.text,gender.response,survey_games.started,survey_games.stopped,pc_frequency.response,reaction_games_frequency.response,instructions_neuro.started,instructions_neuro.stopped,survey_neuro.started,survey_neuro.stopped,neuro_1_rev.response,neuro_2.response,neuro_3.response,neuro_4_rev.response,survey_fear.started,survey_fear.stopped,specific_fear_spider.response,specific_fear_snake.response,thanks.started,thanks.stopped,participant,session,date,expName,psychopyVersion,frameRate,expStart,
,,,,,,,,,,,0.004246468694873329,0.022259187337112962,7.113626388691955,z,7.079212897158868,None,,,,,,,,,,,,,,,,,,,,,,,,,,,,,,,,,,,,,,,,,,,,,,,,,,,430550,001,2023-11-06_13h31.42.073,Selektive Wahrnehmung,2023.2.3,59.84015400762341,2023-11-06 13h32.52.109665 +0100,
,,,,,,,,,,,,,,,,,7.113661090895221,27.735464257158128,,,,,,,,,,,,,,,,,,,,,,,,,,,,,,,,,,,,,,,,,,,,,,,,,430550,001,2023-11-06_13h31.42.073,Selektive Wahrnehmung,2023.2.3,59.84015400762341,2023-11-06 13h32.52.109665 +0100,
person1,0,0,0,4,,,,,28.013463885673445,,,,,,,,,,27.743850243497945,28.013463885673445,30.01881655818397,30.739817392459372,3.00446947301225,31.722319233525013,"[300, 0]",[0.20925925925925926],[-0.025],[1],[0],[0],[0.9818752103110455],[1],['target_find'],31.723491143969113,32.73951986373959,,,,,,,,,,,,,,,,,,,,,,,,,,,,,,,,430550,001,2023-11-06_13h31.42.073,Selektive Wahrnehmung,2023.2.3,59.84015400762341,2023-11-06 13h32.52.109665 +0100,
spinne2,0,1,1,1,,,,,33.203307119896635,,,,,,,,,,32.73979549024989,33.203307119896635,35.207439810878896,35.74136789824388,3.001966647770132,37.11042127051587,"[0, -300]",[0.05],[-0.2777777777777778],[1],[0],[0],[1.3684648570515492],[1],['target_find'],37.11097337686806,38.127524336341594,,,,,,,,,,,,,,,,,,,,,,,,,,,,,,,,430550,001,2023-11-06_13h31.42.073,Selektive Wahrnehmung,2023.2.3,59.84015400762341,2023-11-06 13h32.52.109665 +0100,
flugzeug1,0,2,2,13,,,,,38.228193719071896,,,,,,,,,,38.12790435390343,38.228193719071896,40.22919041183832,41.130032566025875,3.002590718526335,42.01915021132754,"[300, 300]",[0.40370370370370373],[0.45555555555555555],[1],[0],[0],[0.8879121704321733],[],[],42.02104802358099,43.032402186010586,,,,,,,,,,,,,,,,,,,,,,,,,,,,,,,,430550,001,2023-11-06_13h31.42.073,Selektive Wahrnehmung,2023.2.3,59.84015400762341,2023-11-06 13h32.52.109665 +0100,
schlange1,0,3,3,2,,,,,43.073312384959536,,,,,,,,,,43.03278476357082,43.073312384959536,45.083930690030684,46.03581949962245,3.0035012246753467,47.088140180969276,"[0, 300]",[-0.019444444444444445],[0.2861111111111111],[1],[0],[0],[1.0518007171976933],[1],['target_find'],47.088632838466765,48.104151834082586,,,,,,,,,,,,,,,,,,,,,,,,,,,,,,,,430550,001,2023-11-06_13h31.42.073,Selektive Wahrnehmung,2023.2.3,59.84015400762341,2023-11-06 13h32.52.109665 +0100,
gesicht4,0,4,4,11,,,,,48.136796935510574,,,,,,,,,,48.10447410945471,48.136796935510574,50.13888219654655,51.10666433043116,3.00264191849692,51.80873084658833,"[0, 300]",[0.03611111111111111],[0.25925925925925924],[1],[0],[0],[0.7014666231652882],[1],['target_find'],51.80923573518976,52.82578527244186,,,,,,,,,,,,,,,,,,,,,,,,,,,,,,,,430550,001,2023-11-06_13h31.42.073,Selektive Wahrnehmung,2023.2.3,59.84015400762341,2023-11-06 13h32.52.109665 +0100,
schlange2,0,5,5,3,,,,,52.87096469562857,,,,,,,,,,52.826261147726655,52.87096469562857,54.87711836323888,55.827915191230204,3.0022124076303953,57.13060913458685,"[300, 300]",[0.22314814814814815],[0.23425925925925925],[1],[0],[0],[1.302173410319483],[1],['target_find'],57.13108500987164,58.14774519594903,,,,,,,,,,,,,,,,,,,,,,,,,,,,,,,,430550,001,2023-11-06_13h31.42.073,Selektive Wahrnehmung,2023.2.3,59.84015400762341,2023-11-06 13h32.52.109665 +0100,
schiff1,0,6,6,14,,,,,58.19081518033636,,,,,,,,,,58.14822249345525,58.19081518033636,60.19899750456989,61.14990156805561,3.0022761231502955,62.23563279039536,"[0, -300]",[-0.08703703703703704],[-0.337037037037037],[1],[0],[0],[1.0851242182407077],[1],['target_find'],62.23612146567302,63.25281436284331,,,,,,,,,,,,,,,,,,,,,,,,,,,,,,,,430550,001,2023-11-06_13h31.42.073,Selektive Wahrnehmung,2023.2.3,59.84015400762341,2023-11-06 13h32.52.109665 +0100,
gesicht2,0,7,7,9,,,,,63.297208435365974,,,,,,,,,,63.25333176699314,63.297208435365974,65.30448878677998,66.25562694791006,3.0029826827476427,66.94052298494717,"[300, 300]",[0.2574074074074074],[0.26666666666666666],[1],[0],[0],[0.6842193440879782],[1],['target_find'],66.94104750020415,67.95735753536974,,,,,,,,,,,,,,,,,,,,,,,,,,,,,,,,430550,001,2023-11-06_13h31.42.073,Selektive Wahrnehmung,2023.2.3,59.84015400762341,2023-11-06 13h32.52.109665 +0100,
gesicht1,0,8,8,8,,,,,67.9933084482509,,,,,,,,,,67.9577984240077,67.9933084482509,70.00874836835646,70.96332204753253,3.006118396519014,71.64519074406871,"[0, 300]",[-0.04259259259259259],[0.30092592592592593],[1],[0],[0],[0.6812352391189052],[1],['target_find'],71.64568795267496,72.6622036410572,,,,,,,,,,,,,,,,,,,,,,,,,,,,,,,,430550,001,2023-11-06_13h31.42.073,Selektive Wahrnehmung,2023.2.3,59.84015400762341,2023-11-06 13h32.52.109665 +0100,
auto1,0,9,9,12,,,,,72.69947608207531,,,,,,,,,,72.66262803192694,72.69947608207531,74.7134556652336,75.66424168434241,3.002114274352607,76.68325934463428,"[-300, 0]",[-0.26296296296296295],[0.019444444444444445],[1],[0],[0],[1.0185594205522648],[1],['target_find'],76.68377333545322,77.70087298794806,,,,,,,,,,,,,,,,,,,,,,,,,,,,,,,,430550,001,2023-11-06_13h31.42.073,Selektive Wahrnehmung,2023.2.3,59.84015400762341,2023-11-06 13h32.52.109665 +0100,
spinne1,0,10,10,0,,,,,77.7457136379935,,,,,,,,,,77.70155878311289,77.7457136379935,79.75183857673164,80.70298271119191,3.002245687611321,82.68960415880247,"[-300, -300]",[-0.18981481481481483],[-0.33425925925925926],[1],[0],[0],[1.9859350835567966],[1],['target_find'],82.69011985628731,83.70718395324639,,,,,,,,,,,,,,,,,,,,,,,,,,,,,,,,430550,001,2023-11-06_13h31.42.073,Selektive Wahrnehmung,2023.2.3,59.84015400762341,2023-11-06 13h32.52.109665 +0100,
person2,0,11,11,5,,,,,83.75089450615724,,,,,,,,,,83.70792862837789,83.75089450615724,85.75786566663646,86.70888549894516,3.001823856739975,87.59446579514861,"[-300, -300]",[-0.325],[-0.36018518518518516],[1],[0],[0],[0.8849587854456331],[1],['target_find'],87.59498888818416,88.611042923495,,,,,,,,,,,,,,,,,,,,,,,,,,,,,,,,430550,001,2023-11-06_13h31.42.073,Selektive Wahrnehmung,2023.2.3,59.84015400762341,2023-11-06 13h32.52.109665 +0100,
gesicht3,0,12,12,10,,,,,88.64141303955148,,,,,,,,,,88.61135069220927,88.64141303955148,90.64599202361296,91.61371044197767,3.002797509519951,92.63313172870676,"[-300, 300]",[-0.3592592592592593],[0.3111111111111111],[1],[0],[0],[1.0188509759427689],[1],['target_find'],92.63364287508284,93.64944119498432,,,,,,,,,,,,,,,,,,,,,,,,,,,,,,,,430550,001,2023-11-06_13h31.42.073,Selektive Wahrnehmung,2023.2.3,59.84015400762341,2023-11-06 13h32.52.109665 +0100,
zug1,0,13,13,15,,,,,93.68028633299218,,,,,,,,,,93.64976261702395,93.68028633299218,95.68438801954835,96.65217954009313,3.0028788605850423,97.37163385080385,"[0, 300]",[-0.05],[0.2916666666666667],[1],[0],[0],[0.7187082133568765],[1],['target_find'],97.37245532589168,98.38786623268061,,,,,,,,,,,,,,,,,,,,,,,,,,,,,,,,430550,001,2023-11-06_13h31.42.073,Selektive Wahrnehmung,2023.2.3,59.84015400762341,2023-11-06 13h32.52.109665 +0100,
gruppe2,0,14,14,7,,,,,98.42669117059359,,,,,,,,,,98.38829489021464,98.42669117059359,100.43929205231325,101.39000297813163,3.0022135454073577,102.55931786847668,"[0, -300]",[0.03148148148148148],[-0.24814814814814815],[1],[0],[0],[1.1687727395419643],[1],['target_find'],102.55979601931631,103.57624969884455,,,,,,,,,,,,,,,,,,,,,,,,,,,,,,,,430550,001,2023-11-06_13h31.42.073,Selektive Wahrnehmung,2023.2.3,59.84015400762341,2023-11-06 13h32.52.109665 +0100,
gruppe1,0,15,15,6,,,,,103.61437433493393,,,,,,,,,,103.57665332528177,103.61437433493393,105.62766726959399,106.5787530929756,3.002625989617627,107.23231844561451,"[0, -300]",[-0.03611111111111111],[-0.29074074074074074],[1],[0],[0],[0.652978259638985],[1],['target_find'],107.23285860530723,108.24750065919943,,,,,,,,,,,,,,,,,,,,,,,,,,,,,,,,430550,001,2023-11-06_13h31.42.073,Selektive Wahrnehmung,2023.2.3,59.84015400762341,2023-11-06 13h32.52.109665 +0100,
spinne1,1,0,16,0,,,,,108.28342341209645,,,,,,,,,,108.24786275677161,108.28342341209645,110.29901067434002,111.24972928015359,3.0023085497978172,112.5866333373815,"[-300, -300]",[-0.36574074074074076],[-0.31666666666666665],[1],[0],[0],[1.3362953464629754],[1],['target_find'],112.58735923919085,113.60267827047574,,,,,,,,,,,,,,,,,,,,,,,,,,,,,,,,430550,001,2023-11-06_13h31.42.073,Selektive Wahrnehmung,2023.2.3,59.84015400762341,2023-11-06 13h32.52.109665 +0100,
person1,1,1,17,4,,,,,113.63071139230578,,,,,,,,,,113.60298148808124,113.63071139230578,115.63766150390802,116.60511994019816,3.002548620772359,117.42413259427121,"[300, -300]",[0.37222222222222223],[-0.287962962962963],[1],[0],[0],[0.818426129962063],[1],['target_find'],117.42464260286943,118.44104451353905,,,,,,,,,,,,,,,,,,,,,,,,,,,,,,,,430550,001,2023-11-06_13h31.42.073,Selektive Wahrnehmung,2023.2.3,59.84015400762341,2023-11-06 13h32.52.109665 +0100,
gruppe2,1,2,18,7,,,,,118.47669419992508,,,,,,,,,,118.44145155330716,118.47669419992508,120.47579962265627,121.44345716994394,3.002548620772359,122.4304321817981,"[300, -300]",[0.3138888888888889],[-0.3074074074074074],[1],[0],[0],[0.9862189589512127],[1],['target_find'],122.4313017279701,123.44636902606544,,,,,,,,,,,,,,,,,,,,,,,,,,,,,,,,430550,001,2023-11-06_13h31.42.073,Selektive Wahrnehmung,2023.2.3,59.84015400762341,2023-11-06 13h32.52.109665 +0100,
schlange2,1,3,19,3,,,,,123.48793572241902,,,,,,,,,,123.44696607461447,123.48793572241902,125.4975493702832,126.44854246482919,3.002294896472449,127.63434147024145,"[-300, -300]",[-0.325],[-0.37037037037037035],[1],[0],[0],[1.1852050857496579],[1],['target_find'],127.63484209217859,128.65160325597662,,,,,,,,,,,,,,,,,,,,,,,,,,,,,,,,430550,001,2023-11-06_13h31.42.073,Selektive Wahrnehmung,2023.2.3,59.84015400762341,2023-11-06 13h32.52.109665 +0100,
flugzeug1,1,4,20,13,,,,,128.69491928466778,,,,,,,,,,128.65219518452886,128.69491928466778,130.70280834684672,131.65389587689424,3.0024416697224297,133.04040986145537,"[300, 0]",[-0.22037037037037038],[-0.07407407407407407],[1],[0],[0],[1.3857639049874706],[0],['dis8'],133.0411442965933,134.0568143321234,,,,,,,,,,,,,,,,,,,,,,,,,,,,,,,,430550,001,2023-11-06_13h31.42.073,Selektive Wahrnehmung,2023.2.3,59.84015400762341,2023-11-06 13h32.52.109665 +0100,
gesicht1,1,5,21,8,,,,,134.10398145195722,,,,,,,,,,134.05730386073355,134.10398145195722,136.10813206292914,137.05927761961084,3.0026086385159942,138.14594011253212,"[300, -300]",[0.3],[-0.2935185185185185],[1],[0],[0],[1.0858350445023461],[1],['target_find'],138.14681591647786,139.16186415680568,,,,,,,,,,,,,,,,,,,,,,,,,,,,,,,,430550,001,2023-11-06_13h31.42.073,Selektive Wahrnehmung,2023.2.3,59.84015400762341,2023-11-06 13h32.52.109665 +0100,
gesicht4,1,6,22,11,,,,,139.20045186818697,,,,,,,,,,139.16234344542227,139.20045186818697,141.2132558431258,142.1642278887948,3.0025068074628507,143.1337198172614,"[300, 300]",[0.31574074074074077],[0.29814814814814816],[1],[0],[0],[0.9687370133406148],[1],['target_find'],143.13459647454056,144.15008190573099,,,,,,,,,,,,,,,,,,,,,,,,,,,,,,,,430550,001,2023-11-06_13h31.42.073,Selektive Wahrnehmung,2023.2.3,59.84015400762341,2023-11-06 13h32.52.109665 +0100,
zug1,1,7,23,15,,,,,144.19195893079632,,,,,,,,,,144.15048922994356,144.19195893079632,146.20178733409375,147.15399415239426,3.0040991265568664,148.15498800071782,"[-300, -300]",[-0.2759259259259259],[-0.25555555555555554],[1],[0],[0],[1.0003123198221147],[1],['target_find'],148.1555034137582,149.17181970669753,,,,,,,,,,,,,,,,,,,,,,,,,,,,,,,,430550,001,2023-11-06_13h31.42.073,Selektive Wahrnehmung,2023.2.3,59.84015400762341,2023-11-06 13h32.52.109665 +0100,
schlange1,1,8,24,2,,,,,149.20783746398592,,,,,,,,,,149.17222447091171,149.20783746398592,151.22328591741916,152.17401447878274,3.002274132039929,153.44397571187164,"[-300, 300]",[-0.2740740740740741],[0.28888888888888886],[1],[0],[0],[1.269458904485873],[1],['target_find'],153.44446723159217,154.46049566691818,,,,,,,,,,,,,,,,,,,,,,,,,,,,,,,,430550,001,2023-11-06_13h31.42.073,Selektive Wahrnehmung,2023.2.3,59.84015400762341,2023-11-06 13h32.52.109665 +0100,
spinne2,1,9,25,1,,,,,154.65157026044017,,,,,,,,,,154.4609686977601,154.65157026044017,156.66184780125968,157.4636635228935,3.0033197492221007,158.09912997027277,"[300, -300]",[0.28055555555555556],[-0.2324074074074074],[1],[0],[0],[0.6346478167342866],[1],['target_find'],158.09997846756778,159.11523890333046,,,,,,,,,,,,,,,,,,,,,,,,,,,,,,,,430550,001,2023-11-06_13h31.42.073,Selektive Wahrnehmung,2023.2.3,59.84015400762341,2023-11-06 13h32.52.109665 +0100,
schiff1,1,10,26,14,,,,,159.16068058414567,,,,,,,,,,159.11574236971046,159.16068058414567,161.1664286342093,162.11755427979097,3.002443660832796,162.93735797341378,"[-300, 300]",[-0.387037037037037],[0.287962962962963],[1],[0],[0],[0.8190149296269738],[1],['target_find'],162.93829379510407,163.95343789315484,,,,,,,,,,,,,,,,,,,,,,,,,,,,,,,,430550,001,2023-11-06_13h31.42.073,Selektive Wahrnehmung,2023.2.3,59.84015400762341,2023-11-06 13h32.52.109665 +0100,
gesicht2,1,11,27,9,,,,,163.99228416438928,,,,,,,,,,163.9539131995516,163.99228416438928,166.00473912619236,166.95643821144859,3.0031761048603585,167.69150509994324,"[0, -300]",[0.03796296296296296],[-0.1787037037037037],[1],[0],[0],[0.7343219289186891],[1],['target_find'],167.69220625510025,168.70797840612795,,,,,,,,,,,,,,,,,,,,,,,,,,,,,,,,430550,001,2023-11-06_13h31.42.073,Selektive Wahrnehmung,2023.2.3,59.84015400762341,2023-11-06 13h32.52.109665 +0100,
gesicht3,1,12,28,10,,,,,168.74499427840328,,,,,,,,,,168.7083942636691,168.74499427840328,170.7594403501853,171.71035692921942,3.0025008341335706,172.44642989714157,"[-300, -300]",[-0.29444444444444445],[-0.26481481481481484],[1],[0],[0],[0.7353271550136924],[1],['target_find'],172.44734068773505,173.46282725670244,,,,,,,,,,,,,,,,,,,,,,,,,,,,,,,,430550,001,2023-11-06_13h31.42.073,Selektive Wahrnehmung,2023.2.3,59.84015400762341,2023-11-06 13h32.52.109665 +0100,
gruppe1,1,13,29,6,,,,,173.50230812313112,,,,,,,,,,173.46323429647055,173.50230812313112,175.51419732525665,176.46505217988124,3.002358896435908,177.25066225740102,"[300, 300]",[0.2101851851851852],[0.18611111111111112],[1],[0],[0],[0.7849080690302799],[1],['target_find'],177.25112760824686,178.26743252341566,,,,,,,,,,,,,,,,,,,,,,,,,,,,,,,,430550,001,2023-11-06_13h31.42.073,Selektive Wahrnehmung,2023.2.3,59.84015400762341,2023-11-06 13h32.52.109665 +0100,
auto1,1,14,30,12,,,,,178.3056461905653,,,,,,,,,,178.26783956318468,178.3056461905653,180.31896244965628,181.26993733976906,3.0026325318349336,182.00502840602803,"[300, -300]",[0.25277777777777777],[-0.2351851851851852],[1],[0],[0],[0.7345218932496209],[1],['target_find'],182.00551395241837,183.02234537395452,,,,,,,,,,,,,,,,,,,,,,,,,,,,,,,,430550,001,2023-11-06_13h31.42.073,Selektive Wahrnehmung,2023.2.3,59.84015400762341,2023-11-06 13h32.52.109665 +0100,
person2,1,15,31,5,,,,,183.05972846379882,,,,,,,,,,183.0227694803798,183.05972846379882,185.07362840255792,186.02465392375234,3.002442238610456,186.89438242452889,"[0, -300]",[0.028703703703703703],[-0.18055555555555555],[1],[0],[0],[0.8688828479243966],[1],['target_find'],186.89541979282785,187.91049477091838,,,,,,,,,,,,,,,,,,,,,,,,,,,,,,,,430550,001,2023-11-06_13h31.42.073,Selektive Wahrnehmung,2023.2.3,59.84015400762341,2023-11-06 13h32.52.109665 +0100,
auto1,2,0,32,12,,,,,187.94836966492767,,,,,,,,,,187.91091205068096,187.94836966492767,189.9618864572376,190.91260790749402,3.002188798754105,191.89869346207615,"[-300, -300]",[-0.2564814814814815],[-0.22592592592592592],[1],[0],[0],[0.9855613237696161],[1],['target_find'],191.89919436845776,192.9155399591591,,,,,,,,,,,,,,,,,,,,,,,,,,,,,,,,430550,001,2023-11-06_13h31.42.073,Selektive Wahrnehmung,2023.2.3,59.84015400762341,2023-11-06 13h32.52.109665 +0100,
zug1,2,1,33,15,,,,,192.95367910190726,,,,,,,,,,192.91593988782097,192.95367910190726,194.96681729887678,195.91791250892038,3.002496851912838,196.9713860429447,"[0, -300]",[0.03796296296296296],[-0.2601851851851852],[1],[0],[0],[1.0527063877943874],[1],['target_find'],196.9722715179969,197.98713344731914,,,,,,,,,,,,,,,,,,,,,,,,,,,,,,,,430550,001,2023-11-06_13h31.42.073,Selektive Wahrnehmung,2023.2.3,59.84015400762341,2023-11-06 13h32.52.109665 +0100,
gruppe2,2,2,34,7,,,,,198.02234281395613,,,,,,,,,,197.98749753600077,198.02234281395613,200.02193321418872,200.98944228156142,3.002404123076303,201.75815124869587,"[300, -300]",[0.23703703703703705],[-0.29444444444444445],[1],[0],[0],[0.7681594207806484],[1],['target_find'],201.75868827950126,202.77531774559702,,,,,,,,,,,,,,,,,,,,,,,,,,,,,,,,430550,001,2023-11-06_13h31.42.073,Selektive Wahrnehmung,2023.2.3,59.84015400762341,2023-11-06 13h32.52.109665 +0100,
spinne1,2,3,35,0,,,,,202.81237031118508,,,,,,,,,,202.77572734536352,202.81237031118508,204.82683003629245,205.77759415319088,3.002352923105718,206.56315559073755,"[300, -300]",[0.24259259259259258],[-0.287962962962963],[1],[0],[0],[0.7850212778539571],[1],['target_find'],206.5636653148922,207.58009054999275,,,,,,,,,,,,,,,,,,,,,,,,,,,,,,,,430550,001,2023-11-06_13h31.42.073,Selektive Wahrnehmung,2023.2.3,59.84015400762341,2023-11-06 13h32.52.109665 +0100,
flugzeug1,2,4,36,13,,,,,207.61870983468907,,,,,,,,,,207.5805064075339,207.61870983468907,209.63172543617384,210.5833989214443,3.003445758039561,211.3855625184351,"[-300, -300]",[-0.36666666666666664],[-0.26666666666666666],[1],[0],[0],[0.8014106729751802],[1],['target_find'],211.38637375352937,212.4015491404516,,,,,,,,,,,,,,,,,,,,,,,,,,,,,,,,430550,001,2023-11-06_13h31.42.073,Selektive Wahrnehmung,2023.2.3,59.84015400762341,2023-11-06 13h32.52.109665 +0100,
schlange2,2,5,37,3,,,,,212.4388375103499,,,,,,,,,,212.40195362022132,212.4388375103499,214.4529320089987,215.40378970806614,3.0023170831263997,216.8069141009555,"[300, -300]",[0.3111111111111111],[-0.3037037037037037],[1],[0],[0],[1.402573993202168],[1],['target_find'],216.8074326428823,217.8239244379447,,,,,,,,,,,,,,,,,,,,,,,,,,,,,,,,430550,001,2023-11-06_13h31.42.073,Selektive Wahrnehmung,2023.2.3,59.84015400762341,2023-11-06 13h32.52.109665 +0100,
gesicht4,2,6,38,11,,,,,217.86629383606396,,,,,,,,,,217.82439121101288,217.86629383606396,219.8751630932402,220.8259960456553,3.0022098476320025,221.46144144415757,"[300, -300]",[0.2361111111111111],[-0.28888888888888886],[1],[0],[0],[0.6348435144000177],[1],['target_find'],221.46193011943524,222.47922091848704,,,,,,,,,,,,,,,,,,,,,,,,,,,,,,,,430550,001,2023-11-06_13h31.42.073,Selektive Wahrnehmung,2023.2.3,59.84015400762341,2023-11-06 13h32.52.109665 +0100,
person2,2,7,39,5,,,,,222.51660087944492,,,,,,,,,,222.4800398335774,222.51660087944492,224.5300738673359,225.48072875762955,3.0016187724122574,226.0998618454114,"[300, 300]",[0.31851851851851853],[0.2657407407407407],[1],[0],[0],[0.6185354703438861],[1],['target_find'],226.10034824513514,227.11620345389292,,,,,,,,,,,,,,,,,,,,,,,,,,,,,,,,430550,001,2023-11-06_13h31.42.073,Selektive Wahrnehmung,2023.2.3,59.84015400762341,2023-11-06 13h32.52.109665 +0100,
gruppe1,2,8,40,6,,,,,227.15113861624104,,,,,,,,,,227.11656412924367,227.15113861624104,229.1511474340141,230.1187159502415,3.002635376278704,230.85387158535286,"[0, 300]",[0.032407407407407406],[0.25833333333333336],[1],[0],[0],[0.734578782106837],[1],['target_find'],230.85442596725989,231.8712024910492,,,,,,,,,,,,,,,,,,,,,,,,,,,,,,,,430550,001,2023-11-06_13h31.42.073,Selektive Wahrnehmung,2023.2.3,59.84015400762341,2023-11-06 13h32.52.109665 +0100,
gesicht1,2,9,41,8,,,,,231.91017306443428,,,,,,,,,,231.87167779744505,231.91017306443428,233.92244455967557,234.87336398315256,3.002275838704918,235.57542793931225,"[300, 300]",[0.24351851851851852],[0.30185185185185187],[1],[0],[0],[0.701461218724944],[1],['target_find'],235.57591604570098,236.59254380513084,,,,,,,,,,,,,,,,,,,,,,,,,,,,,,,,430550,001,2023-11-06_13h31.42.073,Selektive Wahrnehmung,2023.2.3,59.84015400762341,2023-11-06 13h32.52.109665 +0100,
schiff1,2,10,42,14,,,,,236.63090765886136,,,,,,,,,,236.59298952932113,236.63090765886136,238.6438128959644,239.59484723493097,3.0024231808438344,240.1348098077524,"[300, 0]",[0.2064814814814815],[0.014814814814814815],[1],[0],[0],[0.5386950890979278],[1],['target_find'],240.13673009110425,241.14714587184608,,,,,,,,,,,,,,,,,,,,,,,,,,,,,,,,430550,001,2023-11-06_13h31.42.073,Selektive Wahrnehmung,2023.2.3,59.84015400762341,2023-11-06 13h32.52.109665 +0100,
gesicht2,2,11,43,9,,,,,241.17889497378383,,,,,,,,,,241.14763198712444,241.17889497378383,243.1816904921934,244.14938757723667,3.002365723098592,244.88518804753767,"[-300, -300]",[-0.20277777777777778],[-0.2601851851851852],[1],[0],[0],[0.7352045595280288],[1],['target_find'],244.8856861094764,245.9017648914405,,,,,,,,,,,,,,,,,,,,,,,,,,,,,,,,430550,001,2023-11-06_13h31.42.073,Selektive Wahrnehmung,2023.2.3,59.84015400762341,2023-11-06 13h32.52.109665 +0100,
schlange1,2,12,44,2,,,,,245.94062168711298,,,,,,,,,,245.90218558453398,245.94062168711298,247.95318985774065,248.90397758351446,3.0023102564637156,249.63936504071626,"[-300, 0]",[-0.23981481481481481],[-0.014814814814814815],[1],[0],[0],[0.7348555463931916],[1],['target_find'],249.63986594709786,250.6566680708729,,,,,,,,,,,,,,,,,,,,,,,,,,,,,,,,430550,001,2023-11-06_13h31.42.073,Selektive Wahrnehmung,2023.2.3,59.84015400762341,2023-11-06 13h32.52.109665 +0100,
gesicht3,2,13,45,10,,,,,250.6952634622503,,,,,,,,,,250.65714593726807,250.6952634622503,252.70790416617,253.6588059541009,3.00226958093117,254.37866787346866,"[-300, 300]",[-0.26851851851851855],[0.3351851851851852],[1],[0],[0],[0.719038168725092],[1],['target_find'],254.37956842406766,255.39454242443753,,,,,,,,,,,,,,,,,,,,,,,,,,,,,,,,430550,001,2023-11-06_13h31.42.073,Selektive Wahrnehmung,2023.2.3,59.84015400762341,2023-11-06 13h32.52.109665 +0100,
spinne2,2,14,46,1,,,,,255.57671931635468,,,,,,,,,,255.3949466197637,255.57671931635468,257.5794650570151,258.397076538552,3.002667518482667,259.4994835914049,"[300, 300]",[0.1638888888888889],[0.29907407407407405],[1],[0],[0],[1.1017826976521974],[1],['target_find'],259.5000220444317,260.51634743958857,,,,,,,,,,,,,,,,,,,,,,,,,,,,,,,,430550,001,2023-11-06_13h31.42.073,Selektive Wahrnehmung,2023.2.3,59.84015400762341,2023-11-06 13h32.52.109665 +0100,
person1,2,15,47,4,,,,,260.5566122344608,,,,,,,,,,260.516757039356,260.5566122344608,262.5676486726261,263.5187993493055,3.002580478531854,264.1717639556182,"[-300, -300]",[-0.2462962962962963],[-0.3055555555555556],[1],[0],[0],[0.6521798245375976],[1],['target_find'],264.17269067509096,265.18784302202675,,,,,,,,,,,,,,,,,,,,,,,,,,,,,,,,430550,001,2023-11-06_13h31.42.073,Selektive Wahrnehmung,2023.2.3,59.84015400762341,2023-11-06 13h32.52.109665 +0100,
gesicht2,3,0,48,9,,,,,265.22680762208256,,,,,,,,,,265.1883334039703,265.22680762208256,267.23908423732064,268.1899823274762,3.0022786831486883,268.8764143636399,"[300, -300]",[0.2388888888888889],[-0.27314814814814814],[1],[0],[0],[0.6855889433090852],[1],['target_find'],268.87741276307133,269.89226246129056,,,,,,,,,,,,,,,,,,,,,,,,,,,,,,,,430550,001,2023-11-06_13h31.42.073,Selektive Wahrnehmung,2023.2.3,59.84015400762341,2023-11-06 13h32.52.109665 +0100,
auto1,3,1,49,12,,,,,269.93078162159964,,,,,,,,,,269.8926618210635,269.93078162159964,271.94386122304786,272.8946722732526,3.002487465251761,273.61321238003893,"[-300, 300]",[-0.287962962962963],[0.2101851851851852],[1],[0],[0],[0.7180500092872535],[1],['target_find'],273.6137201130832,274.6299857749409,,,,,,,,,,,,,,,,,,,,,,,,,,,,,,,,430550,001,2023-11-06_13h31.42.073,Selektive Wahrnehmung,2023.2.3,59.84015400762341,2023-11-06 13h32.52.109665 +0100,
spinne2,3,2,50,1,,,,,274.80168829059494,,,,,,,,,,274.63023836146385,274.80168829059494,276.8153515717113,277.63332600415197,3.0034281224943697,278.3011940686538,"[0, 300]",[-0.05555555555555555],[0.27037037037037037],[1],[0],[0],[0.6673284736971254],[1],['target_find'],278.3017595438878,279.3188284763992,,,,,,,,,,,,,,,,,,,,,,,,,,,,,,,,430550,001,2023-11-06_13h31.42.073,Selektive Wahrnehmung,2023.2.3,59.84015400762341,2023-11-06 13h32.52.109665 +0100,
schiff1,3,3,51,14,,,,,279.35922411564115,,,,,,,,,,279.31941756050855,279.35922411564115,281.36979833184796,282.32069755978046,3.0019427544502832,283.25690524051606,"[0, -300]",[-0.002777777777777778],[-0.21574074074074073],[1],[0],[0],[0.9356669521539516],[1],['target_find'],283.25741866244607,284.2732812667555,,,,,,,,,,,,,,,,,,,,,,,,,,,,,,,,430550,001,2023-11-06_13h31.42.073,Selektive Wahrnehmung,2023.2.3,59.84015400762341,2023-11-06 13h32.52.109665 +0100,
gruppe2,3,4,52,7,,,,,284.30950695281354,,,,,,,,,,284.27366498209267,284.30950695281354,286.324771939685,287.27566889206446,3.0024684074851393,288.7451032205636,"[300, 0]",[0.2916666666666667],[-0.014814814814814815],[1],[0],[0],[1.4689265954566508],[1],['target_find'],288.7456049802777,289.7621912108416,,,,,,,,,,,,,,,,,,,,,,,,,,,,,,,,430550,001,2023-11-06_13h31.42.073,Selektive Wahrnehmung,2023.2.3,59.84015400762341,2023-11-06 13h32.52.109665 +0100,
flugzeug1,3,5,53,13,,,,,289.8018000771981,,,,,,,,,,289.76260308616384,289.8018000771981,291.81356497717115,292.76430861408244,3.002196763194661,293.67037003641144,"[0, -300]",[0.021296296296296296],[-0.2518518518518518],[1],[0],[0],[0.9045897076102847],[1],['target_find'],293.6723574486141,294.68396675756503,,,,,,,,,,,,,,,,,,,,,,,,,,,,,,,,430550,001,2023-11-06_13h31.42.073,Selektive Wahrnehmung,2023.2.3,59.84015400762341,2023-11-06 13h32.52.109665 +0100,
gesicht3,3,6,54,10,,,,,294.7245993388942,,,,,,,,,,294.68444405507125,294.7245993388942,296.73513629289937,297.68614133410574,3.002296603139257,298.1881072707647,"[-300, 0]",[-0.22037037037037038],[-0.027777777777777776],[1],[0],[0],[0.5013216703591752],[1],['target_find'],298.188549581625,299.2057997051443,,,,,,,,,,,,,,,,,,,,,,,,,,,,,,,,430550,001,2023-11-06_13h31.42.073,Selektive Wahrnehmung,2023.2.3,59.84015400762341,2023-11-06 13h32.52.109665 +0100,
spinne1,3,7,55,0,,,,,299.2500208355441,,,,,,,,,,299.20663597133625,299.2500208355441,301.2563790185932,302.20730043318054,3.001637830180698,302.76007750537883,"[-300, 0]",[-0.22962962962962963],[-0.05185185185185185],[1],[0],[0],[0.552133659230094],[1],['target_find'],302.760598607304,303.776272056165,,,,,,,,,,,,,,,,,,,,,,,,,,,,,,,,430550,001,2023-11-06_13h31.42.073,Selektive Wahrnehmung,2023.2.3,59.84015400762341,2023-11-06 13h32.52.109665 +0100,
gesicht1,3,8,56,8,,,,,303.81481055868517,,,,,,,,,,303.77667454482525,303.81481055868517,305.82756731587233,306.77853424154546,3.0023955897486303,307.39701026303464,"[-300, 0]",[-0.2222222222222222],[-0.023148148148148147],[1],[0],[0],[0.6178946173749864],[1],['target_find'],307.3975381916234,308.4141039421984,,,,,,,,,,,,,,,,,,,,,,,,,,,,,,,,430550,001,2023-11-06_13h31.42.073,Selektive Wahrnehmung,2023.2.3,59.84015400762341,2023-11-06 13h32.52.109665 +0100,
schlange1,3,9,57,2,,,,,308.45358310196116,,,,,,,,,,308.41451126641095,308.45358310196116,310.46550273962475,311.41649839416914,3.002530131894673,312.3690522344941,"[0, 300]",[0.000925925925925926],[0.2638888888888889],[1],[0],[0],[0.9519132717996399],[1],['target_find'],312.3695491586559,313.38680696217216,,,,,,,,,,,,,,,,,,,,,,,,,,,,,,,,430550,001,2023-11-06_13h31.42.073,Selektive Wahrnehmung,2023.2.3,59.84015400762341,2023-11-06 13h32.52.109665 +0100,
gruppe1,3,10,58,6,,,,,313.42609412204456,,,,,,,,,,313.38765119280197,313.42609412204456,315.4372252801559,316.3898542137713,3.003191464851625,317.3238233180027,"[300, 300]",[0.275],[0.23333333333333334],[1],[0],[0],[0.9333217090443213],[1],['target_find'],317.3243304821581,318.3407716461379,,,,,,,,,,,,,,,,,,,,,,,,,,,,,,,,430550,001,2023-11-06_13h31.42.073,Selektive Wahrnehmung,2023.2.3,59.84015400762341,2023-11-06 13h32.52.109665 +0100,
gesicht4,3,11,59,11,,,,,318.3826355867668,,,,,,,,,,318.3411803925728,318.3826355867668,320.39204585696916,321.34306312927856,3.0024240341772384,321.99623338880974,"[300, 300]",[0.20555555555555555],[0.24351851851851852],[1],[0],[0],[0.6523521977724158],[1],['target_find'],321.99717233938554,323.0119344287659,,,,,,,,,,,,,,,,,,,,,,,,,,,,,,,,430550,001,2023-11-06_13h31.42.073,Selektive Wahrnehmung,2023.2.3,59.84015400762341,2023-11-06 13h32.52.109665 +0100,
person2,3,12,60,5,,,,,323.05188889492547,,,,,,,,,,323.01233805520224,323.05188889492547,325.0634748794446,326.01444408067164,3.0026257051722496,326.63389261716384,"[-300, -300]",[-0.23425925925925925],[-0.2833333333333333],[1],[0],[0],[0.6187217813494499],[1],['target_find'],326.63473684779365,327.6498064214438,,,,,,,,,,,,,,,,,,,,,,,,,,,,,,,,430550,001,2023-11-06_13h31.42.073,Selektive Wahrnehmung,2023.2.3,59.84015400762341,2023-11-06 13h32.52.109665 +0100,
schlange2,3,13,61,3,,,,,327.6842358418571,,,,,,,,,,327.65011020793736,327.6842358418571,329.6848431303997,330.6525501709939,3.002898771685068,332.20498249672073,"[-300, 0]",[-0.362962962962963],[-0.014814814814814815],[1],[0],[0],[1.551797161642753],[1],['target_find'],332.20549079865395,333.2222067358116,,,,,,,,,,,,,,,,,,,,,,,,,,,,,,,,430550,001,2023-11-06_13h31.42.073,Selektive Wahrnehmung,2023.2.3,59.84015400762341,2023-11-06 13h32.52.109665 +0100,
person1,3,14,62,4,,,,,333.26494534260837,,,,,,,,,,333.222606380029,333.26494534260837,335.27358562213794,336.22458525890306,3.002502256353182,336.82764838249295,"[-300, 0]",[-0.22314814814814815],[-0.04259259259259259],[1],[0],[0],[0.6022948395839194],[1],['target_find'],336.8285250397721,337.8443842307506,,,,,,,,,,,,,,,,,,,,,,,,,,,,,,,,430550,001,2023-11-06_13h31.42.073,Selektive Wahrnehmung,2023.2.3,59.84015400762341,2023-11-06 13h32.52.109665 +0100,
zug1,3,15,63,15,,,,,337.88461261675275,,,,,,,,,,337.8452096880583,337.88461261675275,339.89493140199465,340.84605420313255,3.0018056523076666,341.61603435176676,"[-300, -300]",[-0.2722222222222222],[-0.275],[1],[0],[0],[0.7693555089881556],[1],['target_find'],341.6165432225889,342.63149588963734,,,,,,,,,,,,,,,,,,,,,,,,,,,,,,,,430550,001,2023-11-06_13h31.42.073,Selektive Wahrnehmung,2023.2.3,59.84015400762341,2023-11-06 13h32.52.109665 +0100,
flugzeug1,4,0,64,13,,,,,342.6742262475518,,,,,,,,,,342.6318707872024,342.6742262475518,344.6830539758621,345.63393499936046,3.002573936313638,346.3864067490658,"[0, -300]",[-0.006481481481481481],[-0.22685185185185186],[1],[0],[0],[0.7518414211735944],[1],['target_find'],346.3869423576498,347.40290195746,,,,,,,,,,,,,,,,,,,,,,,,,,,,,,,,430550,001,2023-11-06_13h31.42.073,Selektive Wahrnehmung,2023.2.3,59.84015400762341,2023-11-06 13h32.52.109665 +0100,
zug1,4,1,65,15,,,,,347.4358480009405,,,,,,,,,,347.40321427728213,347.4358480009405,349.4377421154177,350.40558739593234,3.0028177050626255,350.9417423975856,"[-300, 0]",[-0.25555555555555554],[-0.0824074074074074],[1],[0],[0],[0.5353693665456376],[1],['target_find'],350.94267594372195,351.95761381966895,,,,,,,,,,,,,,,,,,,,,,,,,,,,,,,,430550,001,2023-11-06_13h31.42.073,Selektive Wahrnehmung,2023.2.3,59.84015400762341,2023-11-06 13h32.52.109665 +0100,
person2,4,2,66,5,,,,,351.992061160071,,,,,,,,,,351.9580197216592,351.992061160071,353.992363524344,354.96043863583964,3.0029664694229723,355.51220593083326,"[0, -300]",[-0.002777777777777778],[-0.2388888888888889],[1],[0],[0],[0.5511523264540301],[1],['target_find'],355.5127244727619,356.52893580576074,,,,,,,,,,,,,,,,,,,,,,,,,,,,,,,,430550,001,2023-11-06_13h31.42.073,Selektive Wahrnehmung,2023.2.3,59.84015400762341,2023-11-06 13h32.52.109665 +0100,
person1,4,3,67,4,,,,,356.570332688877,,,,,,,,,,356.5293340277558,356.570332688877,358.58022281658396,359.5313185955156,3.002472958592989,360.5000948621682,"[300, -300]",[0.28055555555555556],[-0.31203703703703706],[1],[0],[0],[0.968214489193997],[1],['target_find'],360.50057699522677,361.5171265324798,,,,,,,,,,,,,,,,,,,,,,,,,,,,,,,,430550,001,2023-11-06_13h31.42.073,Selektive Wahrnehmung,2023.2.3,59.84015400762341,2023-11-06 13h32.52.109665 +0100,
spinne2,4,4,68,1,,,,,361.69834826049464,,,,,,,,,,361.5175358478018,361.69834826049464,363.7021717605412,364.5223762361593,3.005428050244518,365.2555578279489,"[300, 300]",[0.22407407407407406],[0.2898148148148148],[1],[0],[0],[0.7325734499136161],[1],['target_find'],365.2560723876568,366.27193442307635,,,,,,,,,,,,,,,,,,,,,,,,,,,,,,,,430550,001,2023-11-06_13h31.42.073,Selektive Wahrnehmung,2023.2.3,59.84015400762341,2023-11-06 13h32.52.109665 +0100,
gruppe1,4,5,69,6,,,,,366.3059812659312,,,,,,,,,,366.27233236062875,366.3059812659312,368.3065993633563,369.2745191682725,3.0027864161911566,369.84359916453013,"[300, 0]",[0.34444444444444444],[0.058333333333333334],[1],[0],[0],[0.5682866811530403],[1],['target_find'],369.8444246218378,370.85985885305763,,,,,,,,,,,,,,,,,,,,,,,,,,,,,,,,430550,001,2023-11-06_13h31.42.073,Selektive Wahrnehmung,2023.2.3,59.84015400762341,2023-11-06 13h32.52.109665 +0100,
gesicht3,4,6,70,10,,,,,370.8976956315337,,,,,,,,,,370.8602764172656,370.8976956315337,372.9113054371237,373.8620129496094,3.0022306120645226,374.6644723686559,"[-300, -300]",[-0.2657407407407407],[-0.27685185185185185],[1],[0],[0],[0.8019155615766067],[1],['target_find'],374.6649687239287,375.68098521259435,,,,,,,,,,,,,,,,,,,,,,,,,,,,,,,,430550,001,2023-11-06_13h31.42.073,Selektive Wahrnehmung,2023.2.3,59.84015400762341,2023-11-06 13h32.52.109665 +0100,
schiff1,4,7,71,14,,,,,375.7116124662816,,,,,,,,,,375.6812796124277,375.7116124662816,377.7160449615394,378.68371530881905,3.002856958373741,379.3188159608517,"[0, 300]",[0.014814814814814815],[0.21481481481481482],[1],[0],[0],[0.6345232301391661],[1],['target_find'],379.31936579164994,380.3370533904754,,,,,,,,,,,,,,,,,,,,,,,,,,,,,,,,430550,001,2023-11-06_13h31.42.073,Selektive Wahrnehmung,2023.2.3,59.84015400762341,2023-11-06 13h32.52.109665 +0100,
spinne1,4,8,72,0,,,,,380.3840959237141,,,,,,,,,,380.3379664566228,380.3840959237141,382.38762701503856,383.3399217266224,3.0029954827405163,384.1403778045851,"[0, 300]",[0.004629629629629629],[0.30925925925925923],[1],[0],[0],[0.7998089672200877],[1],['target_find'],384.14088838207226,385.15755852369966,,,,,,,,,,,,,,,,,,,,,,,,,,,,,,,,430550,001,2023-11-06_13h31.42.073,Selektive Wahrnehmung,2023.2.3,59.84015400762341,2023-11-06 13h32.52.109665 +0100,
auto1,4,9,73,12,,,,,385.1995151931651,,,,,,,,,,385.158031838987,385.1995151931651,387.2088981567149,388.1597948246499,3.0023620253232366,388.79516171652995,"[300, 300]",[0.18611111111111112],[0.22870370370370371],[1],[0],[0],[0.6347712655533542],[1],['target_find'],388.7957007384457,389.8125224888763,,,,,,,,,,,,,,,,,,,,,,,,,,,,,,,,430550,001,2023-11-06_13h31.42.073,Selektive Wahrnehmung,2023.2.3,59.84015400762341,2023-11-06 13h32.52.109665 +0100,
schlange2,4,10,74,3,,,,,389.85401750527035,,,,,,,,,,389.8131104352078,389.85401750527035,391.86348096655365,392.8145096166345,3.002119394350302,393.5506551178487,"[0, 300]",[0.001851851851851852],[0.2],[1],[0],[0],[0.7353937149764533],[1],['target_find'],393.5515101573628,394.56677201534785,,,,,,,,,,,,,,,,,,,,,,,,,,,,,,,,430550,001,2023-11-06_13h31.42.073,Selektive Wahrnehmung,2023.2.3,59.84015400762341,2023-11-06 13h32.52.109665 +0100,
gruppe2,4,11,75,7,,,,,394.6034980388986,,,,,,,,,,394.56718303733487,394.6034980388986,396.618332661571,397.56942588050424,3.0028333494992694,398.7725626182755,"[-300, 0]",[-0.3074074074074074],[-0.028703703703703703],[1],[0],[0],[1.2023451293316612],[1],['target_find'],398.77330359563075,399.7885973113762,,,,,,,,,,,,,,,,,,,,,,,,,,,,,,,,430550,001,2023-11-06_13h31.42.073,Selektive Wahrnehmung,2023.2.3,59.84015400762341,2023-11-06 13h32.52.109665 +0100,
schlange1,4,12,76,2,,,,,399.82318090059107,,,,,,,,,,399.788957417838,399.82318090059107,401.82335611826875,402.790980101131,3.002488034138878,403.4934303326254,"[-300, 0]",[-0.18333333333333332],[-0.023148148148148147],[1],[0],[0],[0.7018480629485566],[1],['target_find'],403.4939665100983,404.510011727637,,,,,,,,,,,,,,,,,,,,,,,,,,,,,,,,430550,001,2023-11-06_13h31.42.073,Selektive Wahrnehmung,2023.2.3,59.84015400762341,2023-11-06 13h32.52.109665 +0100,
gesicht1,4,13,77,8,,,,,404.54898173213496,,,,,,,,,,404.5103920296433,404.54898173213496,406.5614739561397,407.5124636373539,3.002574220758106,408.1142490372267,"[-300, 0]",[-0.22777777777777777],[-0.030555555555555555],[1],[0],[0],[0.6012273201904463],[1],['target_find'],408.1147553480505,409.1316391073333,,,,,,,,,,,,,,,,,,,,,,,,,,,,,,,,430550,001,2023-11-06_13h31.42.073,Selektive Wahrnehmung,2023.2.3,59.84015400762341,2023-11-06 13h32.52.109665 +0100,
gesicht4,4,14,78,11,,,,,409.17715588144074,,,,,,,,,,409.13223188921893,409.17715588144074,411.18279413601067,412.13372835059,3.0022158209612826,412.7524569586012,"[-300, 300]",[-0.25],[0.24259259259259258],[1],[0],[0],[0.6180954350402317],[1],['target_find'],412.7529809049711,413.7693199534542,,,,,,,,,,,,,,,,,,,,,,,,,,,,,,,,430550,001,2023-11-06_13h31.42.073,Selektive Wahrnehmung,2023.2.3,59.84015400762341,2023-11-06 13h32.52.109665 +0100,
gesicht2,4,15,79,9,,,,,413.8074912384045,,,,,,,,,,413.7697622643127,413.8074912384045,415.8207170442138,416.7717795431645,3.0025998207438533,417.39083981321073,"[-300, 300]",[-0.27870370370370373],[0.24074074074074073],[1],[0],[0],[0.6183130349163548],[1],['target_find'],417.39170338605345,418.4073953237921,,,,,,,,,,,,,,,,,,,,,,,,,,,,,,,,430550,001,2023-11-06_13h31.42.073,Selektive Wahrnehmung,2023.2.3,59.84015400762341,2023-11-06 13h32.52.109665 +0100,
,,,,,0,0,0,0,426.2163986680034,,,,,,,,,,,,,,,,,,,,,,,,,,,418.42774446777275,421.3771662920999,421.37718705653333,426.16550077695956,426.16647528307203,441.083337339257,2.0,2.0,schiff1,,,,,,,,,,,,,,,,,,,,,,,430550,001,2023-11-06_13h31.42.073,Selektive Wahrnehmung,2023.2.3,59.84015400762341,2023-11-06 13h32.52.109665 +0100,
,,,,,1,0,1,0,441.1208376201457,,,,,,,,,,,,,,,,,,,,,,,,,,,,,,,441.0839440589125,450.17099197383595,1.0,3.0,schlange1,,,,,,,,,,,,,,,,,,,,,,,430550,001,2023-11-06_13h31.42.073,Selektive Wahrnehmung,2023.2.3,59.84015400762341,2023-11-06 13h32.52.109665 +0100,
,,,,,2,0,2,0,450.2023801159785,,,,,,,,,,,,,,,,,,,,,,,,,,,,,,,450.1713139647627,458.41807307771796,2.0,2.0,gesicht2,,,,,,,,,,,,,,,,,,,,,,,430550,001,2023-11-06_13h31.42.073,Selektive Wahrnehmung,2023.2.3,59.84015400762341,2023-11-06 13h32.52.109665 +0100,
,,,,,3,0,3,0,458.45546299422585,,,,,,,,,,,,,,,,,,,,,,,,,,,,,,,458.4186732551543,467.4751567785779,2.0,2.0,spinne1,,,,,,,,,,,,,,,,,,,,,,,430550,001,2023-11-06_13h31.42.073,Selektive Wahrnehmung,2023.2.3,59.84015400762341,2023-11-06 13h32.52.109665 +0100,
,,,,,4,0,4,0,467.508334644147,,,,,,,,,,,,,,,,,,,,,,,,,,,,,,,467.4754668228461,477.39705975633933,3.0,2.0,flugzeug1,,,,,,,,,,,,,,,,,,,,,,,430550,001,2023-11-06_13h31.42.073,Selektive Wahrnehmung,2023.2.3,59.84015400762341,2023-11-06 13h32.52.109665 +0100,
,,,,,,,,,,,,,,,,,,,,,,,,,,,,,,,,,,,,,,,,,,,,,477.4014621005017,482.94090015806523,23,1.0,482.9409197847208,498.7473563037265,4.0,2.0,498.7473759303821,502.2584890262815,502.25851775515457,529.988507028761,3.0,4.0,4.0,2.0,529.988529784302,537.7287425543154,3.0,3.0,537.728772705409,538.7119916305119,,,,,,,,
