Target,trials.thisRepN,trials.thisTrialN,trials.thisN,trials.thisIndex,trials_2.thisRepN,trials_2.thisTrialN,trials_2.thisN,trials_2.thisIndex,thisRow.t,notes,Data_transparency.started,key_resp_data_transp.started,Data_transparency.stopped,key_resp_data_transp.keys,key_resp_data_transp.rt,key_resp_data_transp.duration,instructions.started,instructions.stopped,trial.started,target_show.started,target_show.stopped,target_find.started,mouse.started,trial.stopped,target_position_x_y,mouse.x,mouse.y,mouse.leftButton,mouse.midButton,mouse.rightButton,mouse.time,mouse.corr,mouse.clicked_name,feedback.started,feedback.stopped,instructions_survey.started,instructions_survey.stopped,instructions_ratings.started,instructions_ratings.stopped,survey_ratings.started,survey_ratings.stopped,furcht.response,liebenswert.response,rated_image,survey_gen.started,survey_gen.stopped,age.text,gender.response,survey_games.started,survey_games.stopped,pc_frequency.response,reaction_games_frequency.response,instructions_neuro.started,instructions_neuro.stopped,survey_neuro.started,survey_neuro.stopped,neuro_1_rev.response,neuro_2.response,neuro_3.response,neuro_4_rev.response,survey_fear.started,survey_fear.stopped,specific_fear_spider.response,specific_fear_snake.response,thanks.started,thanks.stopped,participant,session,date,expName,psychopyVersion,frameRate,expStart,
,,,,,,,,,,,0.004345170804299414,0.01235569070558995,57.30492427095305,z,57.28648517036345,None,,,,,,,,,,,,,,,,,,,,,,,,,,,,,,,,,,,,,,,,,,,,,,,,,,,500251,001,2023-11-13_13h15.25.625,Selektive Wahrnehmung,2023.2.3,59.937175230577104,2023-11-13 13h28.26.650190 +0100,
,,,,,,,,,,,,,,,,,57.304991684271954,76.47437967674341,,,,,,,,,,,,,,,,,,,,,,,,,,,,,,,,,,,,,,,,,,,,,,,,,500251,001,2023-11-13_13h15.25.625,Selektive Wahrnehmung,2023.2.3,59.937175230577104,2023-11-13 13h28.26.650190 +0100,
schiff1,0,0,0,14,,,,,76.74586126452778,,,,,,,,,,76.49871530733071,76.74586126452778,78.75797062658239,79.47919531841762,3.0049681038362905,80.89582597918343,"[300, 300]",[0.31203703703703706],[0.387037037037037],[1],[0],[0],[1.4158009367529303],[1],['target_find'],80.89761883148458,81.91105541051365,,,,,,,,,,,,,,,,,,,,,,,,,,,,,,,,500251,001,2023-11-13_13h15.25.625,Selektive Wahrnehmung,2023.2.3,59.937175230577104,2023-11-13 13h28.26.650190 +0100,
spinne1,0,1,1,0,,,,,81.97622273350134,,,,,,,,,,81.91134013934061,81.97622273350134,83.97965341596864,84.91378095571417,3.002847287338227,85.78341160761192,"[300, 0]",[0.20462962962962963],[0.053703703703703705],[1],[0],[0],[0.8689141367794946],[1],['target_find'],85.78419923386537,86.79940050514415,,,,,,,,,,,,,,,,,,,,,,,,,,,,,,,,500251,001,2023-11-13_13h15.25.625,Selektive Wahrnehmung,2023.2.3,59.937175230577104,2023-11-13 13h28.26.650190 +0100,
gesicht4,0,2,2,11,,,,,86.99945329804905,,,,,,,,,,86.7996914916439,86.99945329804905,89.00133205251768,89.80407079588622,3.0047564771957695,90.887899654801,"[300, -300]",[0.225],[-0.2861111111111111],[1],[0],[0],[1.0832787436665967],[1],['target_find'],90.88845261454117,91.90542056935374,,,,,,,,,,,,,,,,,,,,,,,,,,,,,,,,500251,001,2023-11-13_13h15.25.625,Selektive Wahrnehmung,2023.2.3,59.937175230577104,2023-11-13 13h28.26.650190 +0100,
auto1,0,3,3,12,,,,,91.98749440710526,,,,,,,,,,91.906135662226,91.98749440710526,93.98965419246815,94.9119337744778,3.0067350717727095,95.69472017360386,"[-300, 300]",[-0.21851851851851853],[0.19537037037037036],[1],[0],[0],[0.7816830397350714],[1],['target_find'],95.69596461742185,96.71023148926906,,,,,,,,,,,,,,,,,,,,,,,,,,,,,,,,500251,001,2023-11-13_13h15.25.625,Selektive Wahrnehmung,2023.2.3,59.937175230577104,2023-11-13 13h28.26.650190 +0100,
spinne2,0,4,4,1,,,,,97.15594487125054,,,,,,,,,,96.71095596882515,97.15594487125054,99.16141160589177,99.71274057228584,3.0025756428949535,101.16629210091196,"[300, 300]",[0.2824074074074074],[0.16203703703703703],[1],[0],[0],[1.4530261600157246],[1],['target_find'],101.16681803844403,102.1819951320067,,,,,,,,,,,,,,,,,,,,,,,,,,,,,,,,500251,001,2023-11-13_13h15.25.625,Selektive Wahrnehmung,2023.2.3,59.937175230577104,2023-11-13 13h28.26.650190 +0100,
flugzeug1,0,5,5,13,,,,,102.2853371532401,,,,,,,,,,102.18260128272232,102.2853371532401,104.29997636261396,105.1847252282314,3.0028930827975273,106.27218075178098,"[-300, -300]",[-0.17592592592592593],[-0.23333333333333334],[1],[0],[0],[1.0863962530856952],[1],['target_find'],106.27352190657984,107.28700883220881,,,,,,,,,,,,,,,,,,,,,,,,,,,,,,,,500251,001,2023-11-13_13h15.25.625,Selektive Wahrnehmung,2023.2.3,59.937175230577104,2023-11-13 13h28.26.650190 +0100,
gruppe1,0,6,6,6,,,,,107.33052226528525,,,,,,,,,,107.28753249417059,107.33052226528525,109.33862807403784,110.29477359226439,3.0079627332743257,111.14209584798664,"[0, -300]",[-0.04814814814814815],[-0.24166666666666667],[1],[0],[0],[0.8464657940203324],[1],['target_find'],111.14289229200222,112.15884734073188,,,,,,,,,,,,,,,,,,,,,,,,,,,,,,,,500251,001,2023-11-13_13h15.25.625,Selektive Wahrnehmung,2023.2.3,59.937175230577104,2023-11-13 13h28.26.650190 +0100,
gruppe2,0,7,7,7,,,,,112.19263249484356,,,,,,,,,,112.15951493137982,112.19263249484356,114.19318773003761,115.16048858419526,3.001714914571494,116.43085571925621,"[0, -300]",[-0.03425925925925926],[-0.3638888888888889],[1],[0],[0],[1.2697060864884406],[1],['target_find'],116.43164533667732,117.4471998878289,,,,,,,,,,,,,,,,,,,,,,,,,,,,,,,,500251,001,2023-11-13_13h15.25.625,Selektive Wahrnehmung,2023.2.3,59.937175230577104,2023-11-13 13h28.26.650190 +0100,
schlange2,0,8,8,3,,,,,117.48962987249251,,,,,,,,,,117.44774943415541,117.48962987249251,119.49839303200133,120.4490823399974,3.0019507189281285,122.13669823331293,"[0, 300]",[0.05462962962962963],[0.22314814814814815],[1],[0],[0],[1.6869508625240996],[1],['target_find'],122.13752539723646,123.1533439126797,,,,,,,,,,,,,,,,,,,,,,,,,,,,,,,,500251,001,2023-11-13_13h15.25.625,Selektive Wahrnehmung,2023.2.3,59.937175230577104,2023-11-13 13h28.26.650190 +0100,
gesicht2,0,9,9,9,,,,,123.19908226886764,,,,,,,,,,123.15406810783315,123.19908226886764,125.20439426589292,126.1552471293835,3.002006185473874,127.00776248448528,"[300, 300]",[0.23055555555555557],[0.1814814814814815],[1],[0],[0],[0.8519581287400797],[1],['target_find'],127.00827533751726,128.02500151458662,,,,,,,,,,,,,,,,,,,,,,,,,,,,,,,,500251,001,2023-11-13_13h15.25.625,Selektive Wahrnehmung,2023.2.3,59.937175230577104,2023-11-13 13h28.26.650190 +0100,
person2,0,10,10,5,,,,,128.0741785177961,,,,,,,,,,128.02581616304815,128.0741785177961,130.0758547479054,131.02716329111718,3.002323340973817,131.71377509611193,"[300, 0]",[0.1925925925925926],[0.03518518518518519],[1],[0],[0],[0.6856102766469121],[1],['target_find'],131.7150263665244,132.72979642031714,,,,,,,,,,,,,,,,,,,,,,,,,,,,,,,,500251,001,2023-11-13_13h15.25.625,Selektive Wahrnehmung,2023.2.3,59.937175230577104,2023-11-13 13h28.26.650190 +0100,
schlange1,0,11,11,2,,,,,132.7770855667768,,,,,,,,,,132.73052033106796,132.7770855667768,134.7805873603793,135.73118024179712,3.0014574924716726,137.31845187209547,"[-300, 0]",[-0.24351851851851852],[0.08703703703703704],[1],[0],[0],[1.5865081818774343],[1],['target_find'],137.31932284054346,138.33516212040558,,,,,,,,,,,,,,,,,,,,,,,,,,,,,,,,500251,001,2023-11-13_13h15.25.625,Selektive Wahrnehmung,2023.2.3,59.937175230577104,2023-11-13 13h28.26.650190 +0100,
gesicht1,0,12,12,8,,,,,138.3879948015092,,,,,,,,,,138.33588091109414,138.3879948015092,140.40265050868038,141.3369529816555,3.0019288166658953,141.98886827297974,"[-300, 0]",[-0.18333333333333332],[0.07222222222222222],[1],[0],[0],[0.65124940732494],[1],['target_find'],141.98949291254394,143.00631693855394,,,,,,,,,,,,,,,,,,,,,,,,,,,,,,,,500251,001,2023-11-13_13h15.25.625,Selektive Wahrnehmung,2023.2.3,59.937175230577104,2023-11-13 13h28.26.650190 +0100,
gesicht3,0,13,13,10,,,,,143.05654041224625,,,,,,,,,,143.00701581814792,143.05654041224625,145.0571397363674,146.00824575521983,3.0020804255036637,146.5104409540072,"[-300, 0]",[-0.18333333333333332],[0.07222222222222222],[1],[0],[0],[0.5014476791257039],[1],['target_find'],146.5112018424552,147.5272501888685,,,,,,,,,,,,,,,,,,,,,,,,,,,,,,,,500251,001,2023-11-13_13h15.25.625,Selektive Wahrnehmung,2023.2.3,59.937175230577104,2023-11-13 13h28.26.650190 +0100,
zug1,0,14,14,15,,,,,147.5639230213128,,,,,,,,,,147.52782391302753,147.5639230213128,149.57852866640314,150.53001185844187,3.0029206739272922,151.28193349286448,"[-300, 300]",[-0.1712962962962963],[0.22407407407407406],[1],[0],[0],[0.7511493682395667],[1],['target_find'],151.2826542747207,152.2988675988745,,,,,,,,,,,,,,,,,,,,,,,,,,,,,,,,500251,001,2023-11-13_13h15.25.625,Selektive Wahrnehmung,2023.2.3,59.937175230577104,2023-11-13 13h28.26.650190 +0100,
person1,0,15,15,4,,,,,152.334212076501,,,,,,,,,,152.29949593625497,152.334212076501,154.33314711705316,155.30058535782155,3.001779767917469,156.2375021581538,"[0, -300]",[0.025],[-0.19722222222222222],[1],[0],[0],[0.9364093516487628],[1],['target_find'],156.23798087786417,157.25402751762886,,,,,,,,,,,,,,,,,,,,,,,,,,,,,,,,500251,001,2023-11-13_13h15.25.625,Selektive Wahrnehmung,2023.2.3,59.937175230577104,2023-11-13 13h28.26.650190 +0100,
gesicht1,1,0,16,8,,,,,157.30206133925822,,,,,,,,,,157.25473578390665,157.30206133925822,159.3047402354423,160.25553848571144,3.0015832169447094,161.07496329955757,"[300, 0]",[0.1685185185185185],[-0.03333333333333333],[1],[0],[0],[0.8187725831521675],[1],['target_find'],161.07578562793788,162.09218384081032,,,,,,,,,,,,,,,,,,,,,,,,,,,,,,,,500251,001,2023-11-13_13h15.25.625,Selektive Wahrnehmung,2023.2.3,59.937175230577104,2023-11-13 13h28.26.650190 +0100,
schlange2,1,1,17,3,,,,,162.13710897089913,,,,,,,,,,162.09293904039077,162.13710897089913,164.14314231846947,165.09450945735443,3.0024880340788513,166.91423635091633,"[300, -300]",[0.18888888888888888],[-0.22685185185185186],[1],[0],[0],[1.8189697029301897],[1],['target_find'],166.9150265371427,167.93131637678016,,,,,,,,,,,,,,,,,,,,,,,,,,,,,,,,500251,001,2023-11-13_13h15.25.625,Selektive Wahrnehmung,2023.2.3,59.937175230577104,2023-11-13 13h28.26.650190 +0100,
flugzeug1,1,2,18,13,,,,,167.98031816224102,,,,,,,,,,167.93205166526604,167.98031816224102,169.98253881873097,170.93802641739603,3.0069546627346426,171.80268299218733,"[-300, -300]",[-0.34444444444444444],[-0.17407407407407408],[1],[0],[0],[0.8637440775055438],[1],['target_find'],171.80347829847597,172.81915999611374,,,,,,,,,,,,,,,,,,,,,,,,,,,,,,,,500251,001,2023-11-13_13h15.25.625,Selektive Wahrnehmung,2023.2.3,59.937175230577104,2023-11-13 13h28.26.650190 +0100,
person1,1,3,19,4,,,,,172.8645280059427,,,,,,,,,,172.81973599584308,172.8645280059427,174.87003570061643,175.82134822604712,3.0022633231710643,176.891656594933,"[0, 300]",[0.003703703703703704],[0.13703703703703704],[1],[0],[0],[1.069652155856602],[0],['dis7'],176.89243426558096,177.90768645249773,,,,,,,,,,,,,,,,,,,,,,,,,,,,,,,,500251,001,2023-11-13_13h15.25.625,Selektive Wahrnehmung,2023.2.3,59.937175230577104,2023-11-13 13h28.26.650190 +0100,
auto1,1,4,20,12,,,,,177.95524126989767,,,,,,,,,,177.90831678104587,177.95524126989767,179.9589891077485,180.9094446025556,3.00183523457963,182.4302922352217,"[300, -300]",[0.32685185185185184],[-0.31574074074074077],[1],[0],[0],[1.5203612329205498],[1],['target_find'],182.43078233266715,183.4468605457805,,,,,,,,,,,,,,,,,,,,,,,,,,,,,,,,500251,001,2023-11-13_13h15.25.625,Selektive Wahrnehmung,2023.2.3,59.937175230577104,2023-11-13 13h28.26.650190 +0100,
spinne1,1,5,21,0,,,,,183.49394005676731,,,,,,,,,,183.44760152313393,183.49394005676731,185.49750670359936,186.44827963830903,3.0014822392258793,187.4177931845188,"[300, 0]",[0.2861111111111111],[-0.06759259259259259],[1],[0],[0],[0.9690115021076053],[1],['target_find'],187.41828299756162,188.43473667709623,,,,,,,,,,,,,,,,,,,,,,,,,,,,,,,,500251,001,2023-11-13_13h15.25.625,Selektive Wahrnehmung,2023.2.3,59.937175230577104,2023-11-13 13h28.26.650190 +0100,
gesicht4,1,6,22,11,,,,,188.47601608466357,,,,,,,,,,188.43531580560375,188.47601608466357,190.48594774131197,191.43725600012112,3.0026732073165476,193.40656446199864,"[0, -300]",[0.11018518518518519],[-0.24259259259259258],[1],[0],[0],[1.968714542221278],[1],['target_find'],193.407077030628,194.42407428310253,,,,,,,,,,,,,,,,,,,,,,,,,,,,,,,,500251,001,2023-11-13_13h15.25.625,Selektive Wahrnehmung,2023.2.3,59.937175230577104,2023-11-13 13h28.26.650190 +0100,
gruppe1,1,7,23,6,,,,,194.46733968076296,,,,,,,,,,194.4246491449885,194.46733968076296,196.47512947185896,197.42593483324163,3.001941901165992,198.39755952486303,"[-300, -300]",[-0.225],[-0.18703703703703703],[1],[0],[0],[0.9705366923008114],[1],['target_find'],198.3989038085565,199.412724956288,,,,,,,,,,,,,,,,,,,,,,,,,,,,,,,,500251,001,2023-11-13_13h15.25.625,Selektive Wahrnehmung,2023.2.3,59.937175230577104,2023-11-13 13h28.26.650190 +0100,
spinne2,1,8,24,1,,,,,199.70414409716614,,,,,,,,,,199.41344118700363,199.70414409716614,201.71377452719025,202.41685195837636,3.004290841985494,203.68514634796884,"[300, 300]",[0.39166666666666666],[0.3],[1],[0],[0],[1.2676387454848737],[1],['target_find'],203.68572775204666,204.7007782679284,,,,,,,,,,,,,,,,,,,,,,,,,,,,,,,,500251,001,2023-11-13_13h15.25.625,Selektive Wahrnehmung,2023.2.3,59.937175230577104,2023-11-13 13h28.26.650190 +0100,
person2,1,9,25,5,,,,,204.7422169643687,,,,,,,,,,204.70129368104972,204.7422169643687,206.75229454087093,207.70325947541278,3.0025838918518275,208.67421913635917,"[-300, -300]",[-0.3453703703703704],[-0.21296296296296297],[1],[0],[0],[0.9690103642642498],[1],['target_find'],208.6751088781748,209.69014147401322,,,,,,,,,,,,,,,,,,,,,,,,,,,,,,,,500251,001,2023-11-13_13h15.25.625,Selektive Wahrnehmung,2023.2.3,59.937175230577104,2023-11-13 13h28.26.650190 +0100,
gesicht2,1,10,26,9,,,,,209.73796822014265,,,,,,,,,,209.6908915535314,209.73796822014265,211.74073273409158,212.6912092778366,3.0011312349233776,213.39325502957217,"[300, 0]",[0.31666666666666665],[-0.09166666666666666],[1],[0],[0],[0.7015235120197758],[1],['target_find'],213.39373005158268,214.41088118846528,,,,,,,,,,,,,,,,,,,,,,,,,,,,,,,,500251,001,2023-11-13_13h15.25.625,Selektive Wahrnehmung,2023.2.3,59.937175230577104,2023-11-13 13h28.26.650190 +0100,
schiff1,1,11,27,14,,,,,214.45733093982562,,,,,,,,,,214.41161562362686,214.45733093982562,216.46187863498926,217.41282820957713,3.0020710388198495,219.58349989913404,"[300, -300]",[0.18055555555555555],[-0.2712962962962963],[1],[0],[0],[2.1699079567333683],[1],['target_find'],219.58430117869284,220.60056712501682,,,,,,,,,,,,,,,,,,,,,,,,,,,,,,,,500251,001,2023-11-13_13h15.25.625,Selektive Wahrnehmung,2023.2.3,59.937175230577104,2023-11-13 13h28.26.650190 +0100,
schlange1,1,12,28,2,,,,,220.65028599451762,,,,,,,,,,220.60127396904863,220.65028599451762,222.6516831847839,223.60231048392598,3.0018119101878256,224.32153610151727,"[-300, 0]",[-0.21296296296296297],[-0.06018518518518518],[1],[0],[0],[0.7185975644970313],[1],['target_find'],224.32226968323812,225.33816954982467,,,,,,,,,,,,,,,,,,,,,,,,,,,,,,,,500251,001,2023-11-13_13h15.25.625,Selektive Wahrnehmung,2023.2.3,59.937175230577104,2023-11-13 13h28.26.650190 +0100,
gruppe2,1,13,29,7,,,,,225.3807940944098,,,,,,,,,,225.33879106061067,225.3807940944098,227.38974811602384,228.34038337960374,3.0022846565116197,229.44306605902966,"[300, 0]",[0.21388888888888888],[-0.09259259259259259],[1],[0],[0],[1.1020233375020325],[1],['target_find'],229.44367732980754,230.46067031566054,,,,,,,,,,,,,,,,,,,,,,,,,,,,,,,,500251,001,2023-11-13_13h15.25.625,Selektive Wahrnehmung,2023.2.3,59.937175230577104,2023-11-13 13h28.26.650190 +0100,
gesicht3,1,14,30,10,,,,,230.507162733702,,,,,,,,,,230.46150288404897,230.507162733702,232.5115505711874,233.46343994967174,3.002927216119133,234.36678322241642,"[300, 0]",[0.2722222222222222],[-0.07222222222222222],[1],[0],[0],[0.9022660822374746],[1],['target_find'],234.36811129271518,235.38172280497383,,,,,,,,,,,,,,,,,,,,,,,,,,,,,,,,500251,001,2023-11-13_13h15.25.625,Selektive Wahrnehmung,2023.2.3,59.937175230577104,2023-11-13 13h28.26.650190 +0100,
zug1,1,15,31,15,,,,,235.4177451133728,,,,,,,,,,235.3823036402464,235.4177451133728,237.43301635805983,238.3839335059747,3.0023335808655247,239.47028424800374,"[300, 300]",[0.30185185185185187],[0.3175925925925926],[1],[0],[0],[1.085558564751409],[1],['target_find'],239.47111880744342,240.48670407861937,,,,,,,,,,,,,,,,,,,,,,,,,,,,,,,,500251,001,2023-11-13_13h15.25.625,Selektive Wahrnehmung,2023.2.3,59.937175230577104,2023-11-13 13h28.26.650190 +0100,
spinne2,2,0,32,1,,,,,240.69828568270896,,,,,,,,,,240.48720157169737,240.69828568270896,242.70477499451954,243.49137920490466,3.0048409572336823,244.825108863879,"[300, 0]",[0.28703703703703703],[-0.06481481481481481],[1],[0],[0],[1.3329781572101638],[1],['target_find'],244.82576792128384,245.842690933845,,,,,,,,,,,,,,,,,,,,,,,,,,,,,,,,500251,001,2023-11-13_13h15.25.625,Selektive Wahrnehmung,2023.2.3,59.937175230577104,2023-11-13 13h28.26.650190 +0100,
flugzeug1,2,1,33,13,,,,,245.8911340708146,,,,,,,,,,245.84352890669834,245.8911340708146,247.893268540618,248.84397918207105,3.0013516792096198,249.9463481194107,"[-300, 300]",[-0.19074074074074074],[0.1675925925925926],[1],[0],[0],[1.1018475509481505],[1],['target_find'],249.9468922612723,250.9638969093794,,,,,,,,,,,,,,,,,,,,,,,,,,,,,,,,500251,001,2023-11-13_13h15.25.625,Selektive Wahrnehmung,2023.2.3,59.937175230577104,2023-11-13 13h28.26.650190 +0100,
gesicht2,2,2,34,9,,,,,251.00812515092548,,,,,,,,,,250.96447319351137,251.00812515092548,253.01508692465723,253.96713786758482,3.0034221491077915,254.8181670011254,"[300, 300]",[0.20185185185185187],[0.21203703703703702],[1],[0],[0],[0.8503552851034328],[1],['target_find'],254.8186289386358,255.8349236138165,,,,,,,,,,,,,,,,,,,,,,,,,,,,,,,,500251,001,2023-11-13_13h15.25.625,Selektive Wahrnehmung,2023.2.3,59.937175230577104,2023-11-13 13h28.26.650190 +0100,
zug1,2,3,35,15,,,,,255.86252836266067,,,,,,,,,,255.835164538119,255.86252836266067,257.8702666693134,258.8377814255655,3.003031607135199,260.0744481709553,"[0, -300]",[0.04722222222222222],[-0.2222222222222222],[1],[0],[0],[1.2358336080797017],[1],['target_find'],260.0753558326978,261.09071241063066,,,,,,,,,,,,,,,,,,,,,,,,,,,,,,,,500251,001,2023-11-13_13h15.25.625,Selektive Wahrnehmung,2023.2.3,59.937175230577104,2023-11-13 13h28.26.650190 +0100,
gesicht4,2,4,36,11,,,,,261.1336805638857,,,,,,,,,,261.0913003569003,261.1336805638857,263.14159835490864,264.0946092972299,3.0041190376505256,264.7797055830015,"[300, -300]",[0.19814814814814816],[-0.1962962962962963],[1],[0],[0],[0.684009708580561],[1],['target_find'],264.780803538044,265.79538016964216,,,,,,,,,,,,,,,,,,,,,,,,,,,,,,,,500251,001,2023-11-13_13h15.25.625,Selektive Wahrnehmung,2023.2.3,59.937175230577104,2023-11-13 13h28.26.650190 +0100,
schlange2,2,5,37,3,,,,,265.8393680558074,,,,,,,,,,265.79598148493096,265.8393680558074,267.84679375821725,268.8016305483179,3.0064913029782474,269.8834700040752,"[0, -300]",[-0.10185185185185185],[-0.2324074074074074],[1],[0],[0],[1.0810361850308254],[1],['target_find'],269.8841068748152,270.90080204745755,,,,,,,,,,,,,,,,,,,,,,,,,,,,,,,,500251,001,2023-11-13_13h15.25.625,Selektive Wahrnehmung,2023.2.3,59.937175230577104,2023-11-13 13h28.26.650190 +0100,
gruppe1,2,6,38,6,,,,,270.9492218599189,,,,,,,,,,270.901527664857,270.9492218599189,272.9518131474033,273.9031714684097,3.002523874049075,274.70513453218155,"[300, 0]",[0.18981481481481483],[-0.05277777777777778],[1],[0],[0],[0.8012351709185168],[1],['target_find'],274.7059019628214,275.72190053155646,,,,,,,,,,,,,,,,,,,,,,,,,,,,,,,,500251,001,2023-11-13_13h15.25.625,Selektive Wahrnehmung,2023.2.3,59.937175230577104,2023-11-13 13h28.26.650190 +0100,
schiff1,2,7,39,14,,,,,275.76682964374777,,,,,,,,,,275.72246430011,275.76682964374777,277.7733146889368,278.72918031399604,3.0075423246016726,279.8616608075099,"[0, -300]",[-0.023148148148148147],[-0.2712962962962963],[1],[0],[0],[1.13123036082834],[1],['target_find'],279.86300793569535,280.87705237208866,,,,,,,,,,,,,,,,,,,,,,,,,,,,,,,,500251,001,2023-11-13_13h15.25.625,Selektive Wahrnehmung,2023.2.3,59.937175230577104,2023-11-13 13h28.26.650190 +0100,
person1,2,8,40,4,,,,,280.9199445787817,,,,,,,,,,280.8776019185316,280.9199445787817,282.92804981861264,283.8791040687356,3.0021256521577016,284.53215230163187,"[300, 0]",[0.2537037037037037],[-0.06759259259259259],[1],[0],[0],[0.6523991310968995],[1],['target_find'],284.5329129056772,285.54813152807765,,,,,,,,,,,,,,,,,,,,,,,,,,,,,,,,500251,001,2023-11-13_13h15.25.625,Selektive Wahrnehmung,2023.2.3,59.937175230577104,2023-11-13 13h28.26.650190 +0100,
spinne1,2,9,41,0,,,,,285.5885570340324,,,,,,,,,,285.5485789589584,285.5885570340324,287.59985373867676,288.5508269221755,3.0027724783867598,289.4362413873896,"[300, 300]",[0.36666666666666664],[0.35185185185185186],[1],[0],[0],[0.884775887709111],[1],['target_find'],289.43715388455894,290.45391988393385,,,,,,,,,,,,,,,,,,,,,,,,,,,,,,,,500251,001,2023-11-13_13h15.25.625,Selektive Wahrnehmung,2023.2.3,59.937175230577104,2023-11-13 13h28.26.650190 +0100,
gesicht1,2,10,42,8,,,,,290.5018507366767,,,,,,,,,,290.4547407901846,290.5018507366767,292.5046994461445,293.4552106921328,3.0013525325339288,294.2078533928143,"[0, -300]",[-0.05],[-0.2564814814814815],[1],[0],[0],[0.7520115188090131],[1],['target_find'],294.2084828680381,295.22445640561637,,,,,,,,,,,,,,,,,,,,,,,,,,,,,,,,500251,001,2023-11-13_13h15.25.625,Selektive Wahrnehmung,2023.2.3,59.937175230577104,2023-11-13 13h28.26.650190 +0100,
person2,2,11,43,5,,,,,295.2695544777671,,,,,,,,,,295.2249194808537,295.2695544777671,297.2760531762615,298.22665942658205,3.0022829497465864,298.8787195000332,"[0, -300]",[-0.018518518518518517],[-0.23148148148148148],[1],[0],[0],[0.6514954516896978],[1],['target_find'],298.87923747312743,299.8964904410532,,,,,,,,,,,,,,,,,,,,,,,,,,,,,,,,500251,001,2023-11-13_13h15.25.625,Selektive Wahrnehmung,2023.2.3,59.937175230577104,2023-11-13 13h28.26.650190 +0100,
schlange1,2,12,44,2,,,,,299.94249389937613,,,,,,,,,,299.89719557843637,299.94249389937613,301.9474799231393,302.8980389557546,3.0016238924581558,304.2841328161303,"[-300, -300]",[-0.2351851851851852],[-0.2796296296296296],[1],[0],[0],[1.38551046513021],[1],['target_find'],304.28474238014314,305.3015413751127,,,,,,,,,,,,,,,,,,,,,,,,,,,,,,,,500251,001,2023-11-13_13h15.25.625,Selektive Wahrnehmung,2023.2.3,59.937175230577104,2023-11-13 13h28.26.650190 +0100,
gruppe2,2,13,45,7,,,,,305.35571407317184,,,,,,,,,,305.3021680058446,305.35571407317184,307.3694558609277,308.30551164841745,3.0041668242774904,309.3075542427832,"[0, 300]",[0.023148148148148147],[0.18333333333333332],[1],[0],[0],[1.0009415105450898],[1],['target_find'],309.3088939753361,310.3234731670236,,,,,,,,,,,,,,,,,,,,,,,,,,,,,,,,500251,001,2023-11-13_13h15.25.625,Selektive Wahrnehmung,2023.2.3,59.937175230577104,2023-11-13 13h28.26.650190 +0100,
gesicht3,2,14,46,10,,,,,310.37113493552897,,,,,,,,,,310.32420504221227,310.37113493552897,312.37431758258026,313.3249679217115,3.0015650124987587,313.9940980655374,"[-300, -300]",[-0.20185185185185187],[-0.23333333333333334],[1],[0],[0],[0.6685754774371162],[1],['target_find'],313.9946723585017,315.0115373445442,,,,,,,,,,,,,,,,,,,,,,,,,,,,,,,,500251,001,2023-11-13_13h15.25.625,Selektive Wahrnehmung,2023.2.3,59.937175230577104,2023-11-13 13h28.26.650190 +0100,
auto1,2,15,47,12,,,,,315.05729902512394,,,,,,,,,,315.01224845519755,315.05729902512394,317.0622227556305,318.0135056989966,3.0021407277090475,318.7165305078961,"[300, -300]",[0.14351851851851852],[-0.2833333333333333],[1],[0],[0],[0.7020412005949765],[1],['target_find'],318.7177766582463,319.7332748895278,,,,,,,,,,,,,,,,,,,,,,,,,,,,,,,,500251,001,2023-11-13_13h15.25.625,Selektive Wahrnehmung,2023.2.3,59.937175230577104,2023-11-13 13h28.26.650190 +0100,
gruppe2,3,0,48,7,,,,,319.78057256923057,,,,,,,,,,319.73411144013517,319.78057256923057,321.78385960741434,322.73643449658994,3.0033496159594506,323.621262437664,"[300, 0]",[0.24722222222222223],[-0.06944444444444445],[1],[0],[0],[0.884138448163867],[1],['target_find'],323.6217394507257,324.63739042845555,,,,,,,,,,,,,,,,,,,,,,,,,,,,,,,,500251,001,2023-11-13_13h15.25.625,Selektive Wahrnehmung,2023.2.3,59.937175230577104,2023-11-13 13h28.26.650190 +0100,
spinne1,3,1,49,0,,,,,324.68085323041305,,,,,,,,,,324.6379627303686,324.68085323041305,326.68867630150635,327.6400815558154,3.002852691686712,328.6085611471208,"[300, 0]",[0.21388888888888888],[0.007407407407407408],[1],[0],[0],[0.9677741694031283],[1],['target_find'],328.6090643290663,329.62541674636304,,,,,,,,,,,,,,,,,,,,,,,,,,,,,,,,500251,001,2023-11-13_13h15.25.625,Selektive Wahrnehmung,2023.2.3,59.937175230577104,2023-11-13 13h28.26.650190 +0100,
auto1,3,2,50,12,,,,,329.66563716798555,,,,,,,,,,329.6258343105437,329.66563716798555,331.67675296601374,332.62751594523434,3.002178274327889,333.8156243537087,"[-300, 300]",[-0.2490740740740741],[0.22777777777777777],[1],[0],[0],[1.1872226491104811],[1],['target_find'],333.81688330415636,334.83154441579245,,,,,,,,,,,,,,,,,,,,,,,,,,,,,,,,500251,001,2023-11-13_13h15.25.625,Selektive Wahrnehmung,2023.2.3,59.937175230577104,2023-11-13 13h28.26.650190 +0100,
gruppe1,3,3,51,6,,,,,334.8793009042274,,,,,,,,,,334.83237755310256,334.8793009042274,336.8821021114709,337.8335574279772,3.002166327671148,338.73572708363645,"[-300, 0]",[-0.26666666666666666],[-0.022222222222222223],[1],[0],[0],[0.9014221361139789],[1],['target_find'],338.7365138565656,339.7524142919574,,,,,,,,,,,,,,,,,,,,,,,,,,,,,,,,500251,001,2023-11-13_13h15.25.625,Selektive Wahrnehmung,2023.2.3,59.937175230577104,2023-11-13 13h28.26.650190 +0100,
flugzeug1,3,4,52,13,,,,,339.797655723989,,,,,,,,,,339.752959856065,339.797655723989,341.8035926449811,342.75470463733654,3.0024342740653083,344.35909213346895,"[0, 300]",[0.0],[0.18796296296296297],[1],[0],[0],[1.6034963321872056],[1],['target_find'],344.3601883817464,345.3750895643607,,,,,,,,,,,,,,,,,,,,,,,,,,,,,,,,500251,001,2023-11-13_13h15.25.625,Selektive Wahrnehmung,2023.2.3,59.937175230577104,2023-11-13 13h28.26.650190 +0100,
spinne2,3,5,53,1,,,,,345.56568088708445,,,,,,,,,,345.37581859505735,345.56568088708445,347.5763392987428,348.37694442551583,3.0019370656227693,349.196692083613,"[300, 300]",[0.2037037037037037],[0.225],[1],[0],[0],[0.819043658557348],[1],['target_find'],349.19760287425015,350.21292190544773,,,,,,,,,,,,,,,,,,,,,,,,,,,,,,,,500251,001,2023-11-13_13h15.25.625,Selektive Wahrnehmung,2023.2.3,59.937175230577104,2023-11-13 13h28.26.650190 +0100,
person2,3,6,54,5,,,,,350.258323195274,,,,,,,,,,350.2135126963258,350.258323195274,352.26415202743374,353.21485157555435,3.0019999276846647,354.26788820314687,"[-300, 300]",[-0.15555555555555556],[0.2388888888888889],[1],[0],[0],[1.052369036944583],[1],['target_find'],354.2687531982083,355.2852580776671,,,,,,,,,,,,,,,,,,,,,,,,,,,,,,,,500251,001,2023-11-13_13h15.25.625,Selektive Wahrnehmung,2023.2.3,59.937175230577104,2023-11-13 13h28.26.650190 +0100,
gesicht1,3,7,55,8,,,,,355.33788482111413,,,,,,,,,,355.28610714385286,355.33788482111413,357.35238664387725,358.28971588844433,3.0046628951095045,359.28993149718735,"[0, -300]",[-0.06018518518518518],[-0.287962962962963],[1],[0],[0],[0.9992669870844111],[1],['target_find'],359.2907222523354,360.3063496212708,,,,,,,,,,,,,,,,,,,,,,,,,,,,,,,,500251,001,2023-11-13_13h15.25.625,Selektive Wahrnehmung,2023.2.3,59.937175230577104,2023-11-13 13h28.26.650190 +0100,
zug1,3,8,56,15,,,,,360.3577031920431,,,,,,,,,,360.3069338698406,360.3577031920431,362.3576036365703,363.3083157001529,3.0020406033145264,364.1105731637217,"[-300, 300]",[-0.2898148148148148],[0.1935185185185185],[1],[0],[0],[0.8017417661612853],[1],['target_find'],364.1110149057349,365.1282516603824,,,,,,,,,,,,,,,,,,,,,,,,,,,,,,,,500251,001,2023-11-13_13h15.25.625,Selektive Wahrnehmung,2023.2.3,59.937175230577104,2023-11-13 13h28.26.650190 +0100,
schlange1,3,9,57,2,,,,,365.16715510492213,,,,,,,,,,365.12898780207615,365.16715510492213,367.1790807158686,368.130644690129,3.0025494741275907,368.93237081181724,"[-300, -300]",[-0.21203703703703702],[-0.18888888888888888],[1],[0],[0],[0.8011003442807123],[1],['target_find'],368.93284697143827,369.9493325087242,,,,,,,,,,,,,,,,,,,,,,,,,,,,,,,,500251,001,2023-11-13_13h15.25.625,Selektive Wahrnehmung,2023.2.3,59.937175230577104,2023-11-13 13h28.26.650190 +0100,
gesicht2,3,10,58,9,,,,,370.0034463269403,,,,,,,,,,369.94988489954267,370.0034463269403,372.0173610567581,372.95126246323343,3.002029225579463,373.7705180327175,"[300, 0]",[0.37407407407407406],[-0.08703703703703704],[1],[0],[0],[0.8186104499036446],[1],['target_find'],373.77118221018463,374.78779574739747,,,,,,,,,,,,,,,,,,,,,,,,,,,,,,,,500251,001,2023-11-13_13h15.25.625,Selektive Wahrnehmung,2023.2.3,59.937175230577104,2023-11-13 13h28.26.650190 +0100,
person1,3,11,59,4,,,,,374.8349258893868,,,,,,,,,,374.78843802248593,374.8349258893868,376.83889189607,377.7915762963239,3.00396486883983,378.5925207651453,"[-300, 300]",[-0.1814814814814815],[0.2101851851851852],[1],[0],[0],[0.8001042203977704],[1],['target_find'],378.5933482134715,379.6093951377552,,,,,,,,,,,,,,,,,,,,,,,,,,,,,,,,500251,001,2023-11-13_13h15.25.625,Selektive Wahrnehmung,2023.2.3,59.937175230577104,2023-11-13 13h28.26.650190 +0100,
schlange2,3,12,60,3,,,,,379.65736865706276,,,,,,,,,,379.6101110839518,379.65736865706276,381.66033569537103,382.61229931388516,3.0030739894136786,383.7136422606418,"[-300, -300]",[-0.20833333333333334],[-0.20925925925925926],[1],[0],[0],[1.1006261472357437],[1],['target_find'],383.71419209148735,384.7305408110842,,,,,,,,,,,,,,,,,,,,,,,,,,,,,,,,500251,001,2023-11-13_13h15.25.625,Selektive Wahrnehmung,2023.2.3,59.937175230577104,2023-11-13 13h28.26.650190 +0100,
gesicht4,3,13,61,11,,,,,384.77384830638766,,,,,,,,,,384.7310152640566,384.77384830638766,386.78180307522416,387.73266048985533,3.002194772125222,388.71930696850177,"[300, 300]",[0.14814814814814814],[0.17592592592592593],[1],[0],[0],[0.9859362213173881],[1],['target_find'],388.72016485244967,389.7361457856605,,,,,,,,,,,,,,,,,,,,,,,,,,,,,,,,500251,001,2023-11-13_13h15.25.625,Selektive Wahrnehmung,2023.2.3,59.937175230577104,2023-11-13 13h28.26.650190 +0100,
schiff1,3,14,62,14,,,,,389.7820926394779,,,,,,,,,,389.7368628697004,389.7820926394779,391.78700527665205,392.7412347783102,3.0053336147684604,393.607477983227,"[0, -300]",[-0.0824074074074074],[-0.32037037037037036],[1],[0],[0],[0.8653998277150095],[1],['target_find'],393.6081376095535,394.62410403601825,,,,,,,,,,,,,,,,,,,,,,,,,,,,,,,,500251,001,2023-11-13_13h15.25.625,Selektive Wahrnehmung,2023.2.3,59.937175230577104,2023-11-13 13h28.26.650190 +0100,
gesicht3,3,15,63,10,,,,,394.6775118634105,,,,,,,,,,394.6247104712529,394.6775118634105,396.69209930405486,397.6258820972871,3.0018582745688036,398.3613491988508,"[-300, 0]",[-0.2657407407407407],[-0.06759259259259259],[1],[0],[0],[0.7349536797264591],[1],['target_find'],398.36181625630707,399.3786661667982,,,,,,,,,,,,,,,,,,,,,,,,,,,,,,,,500251,001,2023-11-13_13h15.25.625,Selektive Wahrnehmung,2023.2.3,59.937175230577104,2023-11-13 13h28.26.650190 +0100,
gesicht1,4,0,64,8,,,,,399.42090642719995,,,,,,,,,,399.37925297534093,399.42090642719995,401.43010905303527,402.3808538276935,3.002371696406044,403.03294945671223,"[0, -300]",[-0.06666666666666667],[-0.14722222222222223],[1],[0],[0],[0.6514049983816221],[1],['target_find'],403.0334412609227,404.05043709126767,,,,,,,,,,,,,,,,,,,,,,,,,,,,,,,,500251,001,2023-11-13_13h15.25.625,Selektive Wahrnehmung,2023.2.3,59.937175230577104,2023-11-13 13h28.26.650190 +0100,
gruppe2,4,1,65,7,,,,,404.0977640687488,,,,,,,,,,404.05114905536175,404.0977640687488,406.1012288845377,407.05279684101697,3.0024291542358696,408.3893268540269,"[300, -300]",[0.15462962962962962],[-0.18333333333333332],[1],[0],[0],[1.3357841999968514],[1],['target_find'],408.39019298681524,409.40552140481304,,,,,,,,,,,,,,,,,,,,,,,,,,,,,,,,500251,001,2023-11-13_13h15.25.625,Selektive Wahrnehmung,2023.2.3,59.937175230577104,2023-11-13 13h28.26.650190 +0100,
person2,4,2,66,5,,,,,409.4493920998648,,,,,,,,,,409.40614206227474,409.4493920998648,411.45670118019916,412.4072337594116,3.001781474566087,413.2939344816841,"[300, 0]",[0.21481481481481482],[-0.06944444444444445],[1],[0],[0],[0.885990749229677],[1],['target_find'],413.29476477450226,414.31041489890777,,,,,,,,,,,,,,,,,,,,,,,,,,,,,,,,500251,001,2023-11-13_13h15.25.625,Selektive Wahrnehmung,2023.2.3,59.937175230577104,2023-11-13 13h28.26.650190 +0100,
gesicht3,4,3,67,10,,,,,414.36144704767503,,,,,,,,,,414.3110110941343,414.36144704767503,416.3614695187425,417.3121224179631,3.001779767801054,418.04907915426884,"[-300, 0]",[-0.15],[-0.07037037037037037],[1],[0],[0],[0.7363315277034417],[1],['target_find'],418.04985255829524,419.0653590383008,,,,,,,,,,,,,,,,,,,,,,,,,,,,,,,,500251,001,2023-11-13_13h15.25.625,Selektive Wahrnehmung,2023.2.3,59.937175230577104,2023-11-13 13h28.26.650190 +0100,
gruppe1,4,4,68,6,,,,,419.1112364877481,,,,,,,,,,419.06600956246257,419.1112364877481,421.11641877819784,422.0686608675169,3.003476477926597,422.9700397681445,"[-300, 0]",[-0.2759259259259259],[-0.019444444444444445],[1],[0],[0],[0.9005594166228548],[1],['target_find'],422.9708327987464,423.9873365404783,,,,,,,,,,,,,,,,,,,,,,,,,,,,,,,,500251,001,2023-11-13_13h15.25.625,Selektive Wahrnehmung,2023.2.3,59.937175230577104,2023-11-13 13h28.26.650190 +0100,
person1,4,5,69,4,,,,,424.0338719096035,,,,,,,,,,423.988064433448,424.0338719096035,426.03808908048086,426.98850958875846,3.001256674877368,427.6248142933473,"[300, 0]",[0.1527777777777778],[-0.020370370370370372],[1],[0],[0],[0.6356095228111371],[1],['target_find'],427.6256417417899,428.64176119933836,,,,,,,,,,,,,,,,,,,,,,,,,,,,,,,,500251,001,2023-11-13_13h15.25.625,Selektive Wahrnehmung,2023.2.3,59.937175230577104,2023-11-13 13h28.26.650190 +0100,
schlange1,4,6,70,2,,,,,428.68867459485773,,,,,,,,,,428.6424777144566,428.68867459485773,430.6928289035568,431.64849627099466,3.0069762804778293,432.3981599868275,"[0, 300]",[0.020370370370370372],[0.19722222222222222],[1],[0],[0],[0.7484667742392048],[1],['target_find'],432.3994826526614,433.41268342745025,,,,,,,,,,,,,,,,,,,,,,,,,,,,,,,,500251,001,2023-11-13_13h15.25.625,Selektive Wahrnehmung,2023.2.3,59.937175230577104,2023-11-13 13h28.26.650190 +0100,
flugzeug1,4,7,71,13,,,,,433.45710167766083,,,,,,,,,,433.41325060930103,433.45710167766083,435.4638273627497,436.4153882081155,3.0028706117300317,437.58577374671586,"[-300, -300]",[-0.1824074074074074],[-0.1675925925925926],[1],[0],[0],[1.1693817347986624],[1],['target_find'],437.58700510603376,438.6014301289106,,,,,,,,,,,,,,,,,,,,,,,,,,,,,,,,500251,001,2023-11-13_13h15.25.625,Selektive Wahrnehmung,2023.2.3,59.937175230577104,2023-11-13 13h28.26.650190 +0100,
schlange2,4,8,72,3,,,,,438.6486529997783,,,,,,,,,,438.60209231521003,438.6486529997783,440.6524230244104,441.6031979501713,3.0018346656579524,442.58969196665566,"[-300, -300]",[-0.2212962962962963],[-0.19166666666666668],[1],[0],[0],[0.9858366658445448],[1],['target_find'],442.59043436625507,443.60649721941445,,,,,,,,,,,,,,,,,,,,,,,,,,,,,,,,500251,001,2023-11-13_13h15.25.625,Selektive Wahrnehmung,2023.2.3,59.937175230577104,2023-11-13 13h28.26.650190 +0100,
schiff1,4,9,73,14,,,,,443.6534330860013,,,,,,,,,,443.60723108565435,443.6534330860013,445.65753989259247,446.60822294279933,3.001790007809177,447.8945360244252,"[-300, 300]",[-0.23981481481481481],[0.2601851851851852],[1],[0],[0],[1.2857066462747753],[1],['target_find'],447.8951817129273,448.91144908149727,,,,,,,,,,,,,,,,,,,,,,,,,,,,,,,,500251,001,2023-11-13_13h15.25.625,Selektive Wahrnehmung,2023.2.3,59.937175230577104,2023-11-13 13h28.26.650190 +0100,
auto1,4,10,74,12,,,,,448.9562243092805,,,,,,,,,,448.91203645884525,448.9562243092805,450.9627739234129,451.91435581760015,3.0030688693514094,452.5842203964712,"[-300, 0]",[-0.32037037037037036],[-0.03148148148148148],[1],[0],[0],[0.6688593528233469],[1],['target_find'],452.58545659133233,453.6002997473115,,,,,,,,,,,,,,,,,,,,,,,,,,,,,,,,500251,001,2023-11-13_13h15.25.625,Selektive Wahrnehmung,2023.2.3,59.937175230577104,2023-11-13 13h28.26.650190 +0100,
spinne1,4,11,75,0,,,,,453.64817996893544,,,,,,,,,,453.60114454687573,453.64817996893544,455.65088986966293,456.6065680460306,3.006443231832236,457.62211776163895,"[0, 300]",[-0.03148148148148148],[0.33796296296296297],[1],[0],[0],[1.0149284893414006],[1],['target_find'],457.6226070057601,458.63787625927944,,,,,,,,,,,,,,,,,,,,,,,,,,,,,,,,500251,001,2023-11-13_13h15.25.625,Selektive Wahrnehmung,2023.2.3,59.937175230577104,2023-11-13 13h28.26.650190 +0100,
gesicht4,4,12,76,11,,,,,458.68123211024795,,,,,,,,,,458.6384906589519,458.68123211024795,460.68899800803047,461.63978260487784,3.001976318890229,462.25889009272214,"[-300, 0]",[-0.2638888888888889],[0.003703703703703704],[1],[0],[0],[0.6184674880933017],[1],['target_find'],462.25967828778084,463.2762073450722,,,,,,,,,,,,,,,,,,,,,,,,,,,,,,,,500251,001,2023-11-13_13h15.25.625,Selektive Wahrnehmung,2023.2.3,59.937175230577104,2023-11-13 13h28.26.650190 +0100,
spinne2,4,13,77,1,,,,,463.4675404984737,,,,,,,,,,463.276929833577,463.4675404984737,465.47686287539545,466.27963006310165,3.0034995180321857,466.8975019248901,"[0, 300]",[0.007407407407407408],[0.18981481481481483],[1],[0],[0],[0.617151933372952],[1],['target_find'],466.89838967553806,467.91380257345736,,,,,,,,,,,,,,,,,,,,,,,,,,,,,,,,500251,001,2023-11-13_13h15.25.625,Selektive Wahrnehmung,2023.2.3,59.937175230577104,2023-11-13 13h28.26.650190 +0100,
zug1,4,14,78,15,,,,,467.96692424989305,,,,,,,,,,467.91439137305133,467.96692424989305,469.9817270147614,470.9170506426599,3.003428406897001,471.75364622008055,"[300, 0]",[0.33055555555555555],[0.004629629629629629],[1],[0],[0],[0.8355090003460646],[1],['target_find'],471.75501325936057,472.7690872779349,,,,,,,,,,,,,,,,,,,,,,,,,,,,,,,,500251,001,2023-11-13_13h15.25.625,Selektive Wahrnehmung,2023.2.3,59.937175230577104,2023-11-13 13h28.26.650190 +0100,
gesicht2,4,15,79,9,,,,,472.8189742540708,,,,,,,,,,472.7698421931127,472.8189742540708,474.82006111566443,475.77090573031455,3.001900656730868,476.4403385227779,"[0, 300]",[-0.000925925925925926],[0.2175925925925926],[1],[0],[0],[0.6687165618641302],[1],['target_find'],476.44113013125025,477.45720777544193,,,,,,,,,,,,,,,,,,,,,,,,,,,,,,,,500251,001,2023-11-13_13h15.25.625,Selektive Wahrnehmung,2023.2.3,59.937175230577104,2023-11-13 13h28.26.650190 +0100,
,,,,,0,0,0,0,489.6785623161122,,,,,,,,,,,,,,,,,,,,,,,,,,,477.497679076856,485.9481213450199,485.94813812721986,489.635523051722,489.6364639934618,503.1929775257595,4.0,3.0,gesicht2,,,,,,,,,,,,,,,,,,,,,,,500251,001,2023-11-13_13h15.25.625,Selektive Wahrnehmung,2023.2.3,59.937175230577104,2023-11-13 13h28.26.650190 +0100,
,,,,,1,0,1,0,503.226707213209,,,,,,,,,,,,,,,,,,,,,,,,,,,,,,,503.1933157299645,514.3781220248202,1.0,3.0,gesicht3,,,,,,,,,,,,,,,,,,,,,,,500251,001,2023-11-13_13h15.25.625,Selektive Wahrnehmung,2023.2.3,59.937175230577104,2023-11-13 13h28.26.650190 +0100,
,,,,,2,0,2,0,514.4109480328625,,,,,,,,,,,,,,,,,,,,,,,,,,,,,,,514.3784263802227,524.208982921089,1.0,4.0,spinne2,,,,,,,,,,,,,,,,,,,,,,,500251,001,2023-11-13_13h15.25.625,Selektive Wahrnehmung,2023.2.3,59.937175230577104,2023-11-13 13h28.26.650190 +0100,
,,,,,3,0,3,0,524.3157544869464,,,,,,,,,,,,,,,,,,,,,,,,,,,,,,,524.2092719164211,539.5552460484905,4.0,2.0,auto1,,,,,,,,,,,,,,,,,,,,,,,500251,001,2023-11-13_13h15.25.625,Selektive Wahrnehmung,2023.2.3,59.937175230577104,2023-11-13 13h28.26.650190 +0100,
,,,,,4,0,4,0,539.6203473804053,,,,,,,,,,,,,,,,,,,,,,,,,,,,,,,539.5555612128228,550.9979596810881,2.0,3.0,gruppe2,,,,,,,,,,,,,,,,,,,,,,,500251,001,2023-11-13_13h15.25.625,Selektive Wahrnehmung,2023.2.3,59.937175230577104,2023-11-13 13h28.26.650190 +0100,
,,,,,,,,,,,,,,,,,,,,,,,,,,,,,,,,,,,,,,,,,,,,,551.003879251075,564.1785863516852,19 ,1.0,564.1786076850258,580.9924957909388,2.0,2.0,580.9925324842334,585.3811425387394,585.3811624498339,600.8144911277341,2.0,4.0,4.0,2.0,600.8145221321611,611.872907734476,2.0,2.0,611.8729378855787,622.9692677863641,,,,,,,,
