Target,trials.thisRepN,trials.thisTrialN,trials.thisN,trials.thisIndex,trials_2.thisRepN,trials_2.thisTrialN,trials_2.thisN,trials_2.thisIndex,thisRow.t,notes,Data_transparency.started,key_resp_data_transp.started,Data_transparency.stopped,key_resp_data_transp.keys,key_resp_data_transp.rt,key_resp_data_transp.duration,instructions.started,instructions.stopped,trial.started,target_show.started,target_show.stopped,target_find.started,mouse.started,trial.stopped,target_position_x_y,mouse.x,mouse.y,mouse.leftButton,mouse.midButton,mouse.rightButton,mouse.time,mouse.corr,mouse.clicked_name,feedback.started,feedback.stopped,instructions_survey.started,instructions_survey.stopped,instructions_ratings.started,instructions_ratings.stopped,survey_ratings.started,survey_ratings.stopped,furcht.response,liebenswert.response,rated_image,survey_gen.started,survey_gen.stopped,age.text,gender.response,survey_games.started,survey_games.stopped,pc_frequency.response,reaction_games_frequency.response,instructions_neuro.started,instructions_neuro.stopped,survey_neuro.started,survey_neuro.stopped,neuro_1_rev.response,neuro_2.response,neuro_3.response,neuro_4_rev.response,survey_fear.started,survey_fear.stopped,specific_fear_spider.response,specific_fear_snake.response,thanks.started,thanks.stopped,participant,session,date,expName,psychopyVersion,frameRate,expStart,
,,,,,,,,,,,0.004525508615188301,0.014306409633718431,5.768850051565096,z,5.740551543189213,None,,,,,,,,,,,,,,,,,,,,,,,,,,,,,,,,,,,,,,,,,,,,,,,,,,,578822,001,2023-11-13_14h37.38.298,Selektive Wahrnehmung,2023.2.3,60.056355775263036,2023-11-13 14h37.45.559779 +0100,
,,,,,,,,,,,,,,,,,5.768889304832555,25.671603102469817,,,,,,,,,,,,,,,,,,,,,,,,,,,,,,,,,,,,,,,,,,,,,,,,,578822,001,2023-11-13_14h37.38.298,Selektive Wahrnehmung,2023.2.3,60.056355775263036,2023-11-13 14h37.45.559779 +0100,
gesicht1,0,0,0,8,,,,,25.70778782851994,,,,,,,,,,25.67938151571434,25.70778782851994,27.72311027313117,28.67388946551364,3.0023685676278546,30.31066748558078,"[300, -300]",[0.2898148148148148],[-0.3287037037037037],[1],[0],[0],[1.6362133980728686],[1],['target_find'],30.311642276123166,31.327245751628652,,,,,,,,,,,,,,,,,,,,,,,,,,,,,,,,578822,001,2023-11-13_14h37.38.298,Selektive Wahrnehmung,2023.2.3,60.056355775263036,2023-11-13 14h37.45.559779 +0100,
schlange1,0,1,1,2,,,,,31.356820277054794,,,,,,,,,,31.327516258112155,31.356820277054794,33.36238400719594,34.32956681703217,3.0024072519736364,35.36568071646616,"[-300, 0]",[-0.28055555555555556],[-0.06111111111111111],[1],[0],[0],[1.035530788707547],[1],['target_find'],35.36628174723592,36.38232042256277,,,,,,,,,,,,,,,,,,,,,,,,,,,,,,,,578822,001,2023-11-13_14h37.38.298,Selektive Wahrnehmung,2023.2.3,60.056355775263036,2023-11-13 14h37.45.559779 +0100,
schiff1,0,2,2,14,,,,,36.42335663025733,,,,,,,,,,36.38273343560286,36.42335663025733,38.43375079333782,39.38460251898505,3.0023586120223626,40.503716975683346,"[0, 300]",[0.021296296296296296],[0.31574074074074077],[1],[0],[0],[1.1185521102743223],[1],['target_find'],40.50421133986674,41.520764005952515,,,,,,,,,,,,,,,,,,,,,,,,,,,,,,,,578822,001,2023-11-13_14h37.38.298,Selektive Wahrnehmung,2023.2.3,60.056355775263036,2023-11-13 14h37.45.559779 +0100,
gruppe1,0,3,3,6,,,,,41.56063825893216,,,,,,,,,,41.521167063503526,41.56063825893216,43.57238723000046,44.522865195875056,3.002183109871112,45.40920012281276,"[300, 0]",[0.27870370370370373],[-0.024074074074074074],[1],[0],[0],[0.885741860489361],[1],['target_find'],45.40986430016346,46.42586030892562,,,,,,,,,,,,,,,,,,,,,,,,,,,,,,,,578822,001,2023-11-13_14h37.38.298,Selektive Wahrnehmung,2023.2.3,60.056355775263036,2023-11-13 14h37.45.559779 +0100,
spinne2,0,4,4,1,,,,,46.61688939132728,,,,,,,,,,46.42630404199008,46.61688939132728,48.627369172056206,49.42822517862078,3.0024459363194183,50.71414743375499,"[300, 300]",[0.2],[0.22685185185185186],[1],[0],[0],[1.2853738465346396],[1],['target_find'],50.71467564685736,51.73141234833747,,,,,,,,,,,,,,,,,,,,,,,,,,,,,,,,578822,001,2023-11-13_14h37.38.298,Selektive Wahrnehmung,2023.2.3,60.056355775263036,2023-11-13 14h37.45.559779 +0100,
gesicht2,0,5,5,9,,,,,51.83120109164156,,,,,,,,,,51.73189590370748,51.83120109164156,53.83249076199718,54.73320207186043,3.001868798979558,55.552339312504046,"[-300, 0]",[-0.25],[-0.007407407407407408],[1],[0],[0],[0.8185791610740125],[1],['target_find'],55.55284932104405,56.56901400524657,,,,,,,,,,,,,,,,,,,,,,,,,,,,,,,,578822,001,2023-11-13_14h37.38.298,Selektive Wahrnehmung,2023.2.3,60.056355775263036,2023-11-13 14h37.45.559779 +0100,
gesicht4,0,6,6,11,,,,,56.60392271424644,,,,,,,,,,56.56938975607045,56.60392271424644,58.60374977218453,59.57129581726622,3.0023620253195986,60.509375141351484,"[-300, -300]",[-0.31203703703703706],[-0.24166666666666667],[1],[0],[0],[0.9371252979617566],[1],['target_find'],60.51073933613952,61.52428827062249,,,,,,,,,,,,,,,,,,,,,,,,,,,,,,,,578822,001,2023-11-13_14h37.38.298,Selektive Wahrnehmung,2023.2.3,60.056355775263036,2023-11-13 14h37.45.559779 +0100,
schlange2,0,7,7,3,,,,,61.570085791288875,,,,,,,,,,61.524765852605924,61.570085791288875,63.57542168162763,64.52640510501806,3.0022064342629164,65.44567526655737,"[-300, 300]",[-0.2351851851851852],[0.20092592592592592],[1],[0],[0],[0.9186446684179828],[1],['target_find'],65.44627800397575,66.46227628819179,,,,,,,,,,,,,,,,,,,,,,,,,,,,,,,,578822,001,2023-11-13_14h37.38.298,Selektive Wahrnehmung,2023.2.3,60.056355775263036,2023-11-13 14h37.45.559779 +0100,
flugzeug1,0,8,8,13,,,,,66.50250979419798,,,,,,,,,,66.46264435909688,66.50250979419798,68.51374875660986,69.46467472240329,3.002476656343788,70.51687935041264,"[300, 300]",[0.21388888888888888],[0.20555555555555555],[1],[0],[0],[1.0516539439558983],[1],['target_find'],70.51748834562022,71.53418238065206,,,,,,,,,,,,,,,,,,,,,,,,,,,,,,,,578822,001,2023-11-13_14h37.38.298,Selektive Wahrnehmung,2023.2.3,60.056355775263036,2023-11-13 14h37.45.559779 +0100,
person1,0,9,9,4,,,,,71.5769775918452,,,,,,,,,,71.534662522492,71.5769775918452,73.58555301802699,74.5363626460312,3.002253652084619,75.28911514219362,"[-300, 0]",[-0.2935185185185185],[0.0],[1],[0],[0],[0.7521599987521768],[1],['target_find'],75.28983507072553,76.3055995417526,,,,,,,,,,,,,,,,,,,,,,,,,,,,,,,,578822,001,2023-11-13_14h37.38.298,Selektive Wahrnehmung,2023.2.3,60.056355775263036,2023-11-13 14h37.45.559779 +0100,
auto1,0,10,10,12,,,,,76.34789242432453,,,,,,,,,,76.30606802145485,76.34789242432453,78.35738319228403,79.30855634005275,3.0031254737405106,80.12888511782512,"[0, 300]",[0.013888888888888888],[0.23333333333333334],[1],[0],[0],[0.8192828762112185],[1],['target_find'],80.13015516160522,81.143632984953,,,,,,,,,,,,,,,,,,,,,,,,,,,,,,,,578822,001,2023-11-13_14h37.38.298,Selektive Wahrnehmung,2023.2.3,60.056355775263036,2023-11-13 14h37.45.559779 +0100,
person2,0,11,11,5,,,,,81.18300661596004,,,,,,,,,,81.14403945591766,81.18300661596004,83.19505681353621,84.14592759707011,3.0023810830898583,84.91522507939953,"[0, 300]",[0.04259259259259259],[0.2064814814814815],[1],[0],[0],[0.7686944605084136],[1],['target_find'],84.91590291005559,85.93214325641748,,,,,,,,,,,,,,,,,,,,,,,,,,,,,,,,578822,001,2023-11-13_14h37.38.298,Selektive Wahrnehmung,2023.2.3,60.056355775263036,2023-11-13 14h37.45.559779 +0100,
gesicht3,0,12,12,10,,,,,85.97683969326317,,,,,,,,,,85.9327161272522,85.97683969326317,87.98323855176568,88.93414602859411,3.0021199631737545,89.85353565670084,"[-300, 0]",[-0.39537037037037037],[-0.07962962962962963],[1],[0],[0],[0.9186546240234748],[1],['target_find'],89.85429967404343,90.87010425166227,,,,,,,,,,,,,,,,,,,,,,,,,,,,,,,,578822,001,2023-11-13_14h37.38.298,Selektive Wahrnehmung,2023.2.3,60.056355775263036,2023-11-13 14h37.45.559779 +0100,
spinne1,0,13,13,0,,,,,90.91501572844572,,,,,,,,,,90.87051271367818,90.91501572844572,92.92151215136983,93.872307557147,3.002282665343955,94.99170645803679,"[300, 300]",[0.24722222222222223],[0.2722222222222222],[1],[0],[0],[1.1188376924255863],[1],['target_find'],94.99223950668238,96.00938097247854,,,,,,,,,,,,,,,,,,,,,,,,,,,,,,,,578822,001,2023-11-13_14h37.38.298,Selektive Wahrnehmung,2023.2.3,60.056355775263036,2023-11-13 14h37.45.559779 +0100,
gruppe2,0,14,14,7,,,,,96.05935328186024,,,,,,,,,,96.01019505201839,96.05935328186024,98.05996256147046,99.01075597619638,3.0014546480961144,99.86547435214743,"[0, -300]",[-0.06481481481481481],[-0.23796296296296296],[1],[0],[0],[0.8537524031708017],[1],['target_find'],99.86682802252471,100.87998527719174,,,,,,,,,,,,,,,,,,,,,,,,,,,,,,,,578822,001,2023-11-13_14h37.38.298,Selektive Wahrnehmung,2023.2.3,60.056355775263036,2023-11-13 14h37.45.559779 +0100,
zug1,0,15,15,15,,,,,100.92346543027088,,,,,,,,,,100.88039629918057,100.92346543027088,102.93165657226928,103.8823393380735,3.0024302918463945,104.68567512999289,"[300, 0]",[0.22037037037037038],[-0.005555555555555556],[1],[0],[0],[0.8028658899711445],[1],['target_find'],104.68617176963016,105.70169844524935,,,,,,,,,,,,,,,,,,,,,,,,,,,,,,,,578822,001,2023-11-13_14h37.38.298,Selektive Wahrnehmung,2023.2.3,60.056355775263036,2023-11-13 14h37.45.559779 +0100,
gesicht1,1,0,16,8,,,,,105.74401635897812,,,,,,,,,,105.70216692506801,105.74401635897812,107.75294933165424,108.70376834634226,3.0021452787332237,109.4234129502438,"[300, 0]",[0.44351851851851853],[-0.002777777777777778],[1],[0],[0],[0.7187585600186139],[],[],109.4242088253377,110.43956540327054,,,,,,,,,,,,,,,,,,,,,,,,,,,,,,,,578822,001,2023-11-13_14h37.38.298,Selektive Wahrnehmung,2023.2.3,60.056355775263036,2023-11-13 14h37.45.559779 +0100,
spinne1,1,1,17,0,,,,,110.47630508022849,,,,,,,,,,110.43995054089464,110.47630508022849,112.49093518743757,113.44188504642807,3.0024007096653804,114.64563988160808,"[-300, 300]",[-0.2175925925925926],[0.24166666666666667],[1],[0],[0],[1.2032701420830563],[1],['target_find'],114.64612485910766,115.66171553474851,,,,,,,,,,,,,,,,,,,,,,,,,,,,,,,,578822,001,2023-11-13_14h37.38.298,Selektive Wahrnehmung,2023.2.3,60.056355775263036,2023-11-13 14h37.45.559779 +0100,
gruppe1,1,2,18,6,,,,,115.70302736898884,,,,,,,,,,115.6622300944291,115.70302736898884,117.71285264345352,118.66375585354399,3.0021122832549736,120.0003865598701,"[300, -300]",[0.20925925925925926],[-0.23148148148148148],[1],[0],[0],[1.3360049289185554],[1],['target_find'],120.00109909276944,121.01677737710997,,,,,,,,,,,,,,,,,,,,,,,,,,,,,,,,578822,001,2023-11-13_14h37.38.298,Selektive Wahrnehmung,2023.2.3,60.056355775263036,2023-11-13 14h37.45.559779 +0100,
person1,1,3,19,4,,,,,121.05427083140239,,,,,,,,,,121.01713179470971,121.05427083140239,123.06839235220104,124.01910839811899,3.002412940841168,125.00579526787624,"[0, -300]",[0.02962962962962963],[-0.22962962962962963],[1],[0],[0],[0.9860784434713423],[1],['target_find'],125.00644408527296,126.02197559643537,,,,,,,,,,,,,,,,,,,,,,,,,,,,,,,,578822,001,2023-11-13_14h37.38.298,Selektive Wahrnehmung,2023.2.3,60.056355775263036,2023-11-13 14h37.45.559779 +0100,
gesicht3,1,4,20,10,,,,,126.06261870218441,,,,,,,,,,126.02244322281331,126.06261870218441,128.0734415226616,129.02402444859035,3.0021247988333926,129.87778737628832,"[-300, 0]",[-0.24722222222222223],[-0.04259259259259259],[1],[0],[0],[0.8532660035416484],[1],['target_find'],129.87830990040675,130.8934659451479,,,,,,,,,,,,,,,,,,,,,,,,,,,,,,,,578822,001,2023-11-13_14h37.38.298,Selektive Wahrnehmung,2023.2.3,60.056355775263036,2023-11-13 14h37.45.559779 +0100,
flugzeug1,1,5,21,13,,,,,130.9270551170921,,,,,,,,,,130.8939247537637,130.9270551170921,132.92813259200193,133.89574946381617,3.0024123719194904,135.43178442993667,"[-300, 0]",[-0.28703703703703703],[0.008333333333333333],[1],[0],[0],[1.5355104509508237],[1],['target_find'],135.43226087407675,136.4493457354838,,,,,,,,,,,,,,,,,,,,,,,,,,,,,,,,578822,001,2023-11-13_14h37.38.298,Selektive Wahrnehmung,2023.2.3,60.056355775263036,2023-11-13 14h37.45.559779 +0100,
gesicht4,1,6,22,11,,,,,136.48811748239677,,,,,,,,,,136.44997350405902,136.48811748239677,138.50041713763494,139.45118836557958,3.0019120344659314,140.22163756284863,"[-300, -300]",[-0.24259259259259258],[-0.30092592592592593],[1],[0],[0],[0.7696948510129005],[1],['target_find'],140.22261263779365,141.23707748297602,,,,,,,,,,,,,,,,,,,,,,,,,,,,,,,,578822,001,2023-11-13_14h37.38.298,Selektive Wahrnehmung,2023.2.3,60.056355775263036,2023-11-13 14h37.45.559779 +0100,
gruppe2,1,7,23,7,,,,,141.27482011041138,,,,,,,,,,141.23748310049996,141.27482011041138,143.28841711592395,144.2393302816199,3.002381652011536,145.14206569700036,"[-300, 0]",[-0.3194444444444444],[-0.05185185185185185],[1],[0],[0],[0.9021170334890485],[1],['target_find'],145.1426618922269,146.15872531419154,,,,,,,,,,,,,,,,,,,,,,,,,,,,,,,,578822,001,2023-11-13_14h37.38.298,Selektive Wahrnehmung,2023.2.3,60.056355775263036,2023-11-13 14h37.45.559779 +0100,
schiff1,1,8,24,14,,,,,146.1870949335862,,,,,,,,,,146.15919862943701,146.1870949335862,148.19338485004846,149.16076449526008,3.0021139899035916,150.16345875151455,"[0, 300]",[-0.032407407407407406],[0.30462962962962964],[1],[0],[0],[1.0020915187196806],[1],['target_find'],150.16402678668965,151.18057746172417,,,,,,,,,,,,,,,,,,,,,,,,,,,,,,,,578822,001,2023-11-13_14h37.38.298,Selektive Wahrnehmung,2023.2.3,60.056355775263036,2023-11-13 14h37.45.559779 +0100,
zug1,1,9,25,15,,,,,151.22388069040608,,,,,,,,,,151.18111363926437,151.22388069040608,153.23185394809116,154.18251310510095,3.002017847727984,155.15267945092637,"[300, -300]",[0.28055555555555556],[-0.2675925925925926],[1],[0],[0],[0.969404888455756],[1],['target_find'],155.15356208162848,156.16861970850732,,,,,,,,,,,,,,,,,,,,,,,,,,,,,,,,578822,001,2023-11-13_14h37.38.298,Selektive Wahrnehmung,2023.2.3,60.056355775263036,2023-11-13 14h37.45.559779 +0100,
auto1,1,10,26,12,,,,,156.2118660483975,,,,,,,,,,156.1690759571502,156.2118660483975,158.21991127054207,159.17075389402453,3.0022098476765677,160.64095451543108,"[300, -300]",[0.33240740740740743],[-0.2824074074074074],[1],[0],[0],[1.4696055639069527],[1],['target_find'],160.6416863905033,161.6577765502734,,,,,,,,,,,,,,,,,,,,,,,,,,,,,,,,578822,001,2023-11-13_14h37.38.298,Selektive Wahrnehmung,2023.2.3,60.056355775263036,2023-11-13 14h37.45.559779 +0100,
gesicht2,1,11,27,9,,,,,161.69023704738356,,,,,,,,,,161.65834942110814,161.69023704738356,163.6921359973494,164.6596362469718,3.0019345056498423,165.61385152640287,"[0, 300]",[-0.011111111111111112],[0.18611111111111112],[1],[0],[0],[0.9536953151691705],[1],['target_find'],165.61437376611866,166.62905251327902,,,,,,,,,,,,,,,,,,,,,,,,,,,,,,,,578822,001,2023-11-13_14h37.38.298,Selektive Wahrnehmung,2023.2.3,60.056355775263036,2023-11-13 14h37.45.559779 +0100,
schlange2,1,12,28,3,,,,,166.66678148740903,,,,,,,,,,166.62945784640033,166.66678148740903,168.68043538182974,169.63129023648798,3.0023224875330925,171.8351591337705,"[0, -300]",[0.014814814814814815],[-0.3314814814814815],[1],[0],[0],[2.203253075480461],[1],['target_find'],171.83576500008348,172.85188445763197,,,,,,,,,,,,,,,,,,,,,,,,,,,,,,,,578822,001,2023-11-13_14h37.38.298,Selektive Wahrnehmung,2023.2.3,60.056355775263036,2023-11-13 14h37.45.559779 +0100,
person2,1,13,29,5,,,,,172.89210175035987,,,,,,,,,,172.85230173741002,172.89210175035987,174.90324912173674,175.85418959415983,3.00238563423045,176.67350063018966,"[0, -300]",[-0.002777777777777778],[-0.2916666666666667],[1],[0],[0],[0.818754663108848],[1],['target_find'],176.6740689498838,177.69002001639456,,,,,,,,,,,,,,,,,,,,,,,,,,,,,,,,578822,001,2023-11-13_14h37.38.298,Selektive Wahrnehmung,2023.2.3,60.056355775263036,2023-11-13 14h37.45.559779 +0100,
schlange1,1,14,30,2,,,,,177.73032634006813,,,,,,,,,,177.6904219361022,177.73032634006813,179.74153458268847,180.69235672615469,3.002499980852008,181.57820525334682,"[-300, 300]",[-0.28888888888888886],[0.2898148148148148],[1],[0],[0],[0.885171549860388],[1],['target_find'],181.5787505330518,182.59490554605145,,,,,,,,,,,,,,,,,,,,,,,,,,,,,,,,578822,001,2023-11-13_14h37.38.298,Selektive Wahrnehmung,2023.2.3,60.056355775263036,2023-11-13 14h37.45.559779 +0100,
spinne2,1,15,31,1,,,,,182.77286526700482,,,,,,,,,,182.5953097413294,182.77286526700482,184.77985093416646,185.59749910898972,3.002673491835594,186.38313791539986,"[-300, 0]",[-0.26481481481481484],[-0.06388888888888888],[1],[0],[0],[0.7850528511917219],[1],['target_find'],186.3837403684156,187.39976283034775,,,,,,,,,,,,,,,,,,,,,,,,,,,,,,,,578822,001,2023-11-13_14h37.38.298,Selektive Wahrnehmung,2023.2.3,60.056355775263036,2023-11-13 14h37.45.559779 +0100,
gruppe2,2,0,32,7,,,,,187.43873027490918,,,,,,,,,,187.40016475017183,187.43873027490918,189.45118296111468,190.40201648243237,3.002329598646611,191.9057232181076,"[0, -300]",[-0.006481481481481481],[-0.25925925925925924],[1],[0],[0],[1.50302065606229],[1],['target_find'],191.90645310212858,192.92299382167403,,,,,,,,,,,,,,,,,,,,,,,,,,,,,,,,578822,001,2023-11-13_14h37.38.298,Selektive Wahrnehmung,2023.2.3,60.056355775263036,2023-11-13 14h37.45.559779 +0100,
spinne2,2,1,33,1,,,,,193.0977623622166,,,,,,,,,,192.92381245223805,193.0977623622166,195.10702187696006,195.92405792768113,3.001140621607192,196.86000818631146,"[-300, 0]",[-0.3277777777777778],[-0.012962962962962963],[1],[0],[0],[0.9353580456227064],[1],['target_find'],196.86052559048403,197.877011412289,,,,,,,,,,,,,,,,,,,,,,,,,,,,,,,,578822,001,2023-11-13_14h37.38.298,Selektive Wahrnehmung,2023.2.3,60.056355775263036,2023-11-13 14h37.45.559779 +0100,
schiff1,2,2,34,14,,,,,197.92198119999375,,,,,,,,,,197.8774989497615,197.92198119999375,199.92814681422897,200.87918172206264,3.002243696479127,201.74832682765555,"[-300, 300]",[-0.287962962962963],[0.24351851851851852],[1],[0],[0],[0.8685361103853211],[1],['target_find'],201.74888661399018,202.76520489808172,,,,,,,,,,,,,,,,,,,,,,,,,,,,,,,,578822,001,2023-11-13_14h37.38.298,Selektive Wahrnehmung,2023.2.3,60.056355775263036,2023-11-13 14h37.45.559779 +0100,
schlange2,2,3,35,3,,,,,202.79890215885825,,,,,,,,,,202.765689022257,202.79890215885825,204.7999989760574,205.7674187278608,3.0022971719736233,207.07156020822003,"[-300, 300]",[-0.24444444444444444],[0.24814814814814815],[1],[0],[0],[1.3033709208248183],[1],['target_find'],207.07262289209757,208.0867108484963,,,,,,,,,,,,,,,,,,,,,,,,,,,,,,,,578822,001,2023-11-13_14h37.38.298,Selektive Wahrnehmung,2023.2.3,60.056355775263036,2023-11-13 14h37.45.559779 +0100,
gesicht2,2,4,36,9,,,,,208.11587634298485,,,,,,,,,,208.0869836305501,208.11587634298485,210.1218724284554,211.08934935368598,3.002723269513808,211.8418515388621,"[0, 300]",[0.0],[0.26944444444444443],[1],[0],[0],[0.7518812434282154],[1],['target_find'],211.84248784079682,212.85871567158028,,,,,,,,,,,,,,,,,,,,,,,,,,,,,,,,578822,001,2023-11-13_14h37.38.298,Selektive Wahrnehmung,2023.2.3,60.056355775263036,2023-11-13 14h37.45.559779 +0100,
person2,2,5,37,5,,,,,212.90293225087225,,,,,,,,,,212.85918671125546,212.90293225087225,214.9100188956363,215.860852416954,3.0022215098142624,216.64650829008315,"[-300, 0]",[-0.25092592592592594],[0.017592592592592594],[1],[0],[0],[0.7850539889186621],[1],['target_find'],216.64712069858797,217.66334710712545,,,,,,,,,,,,,,,,,,,,,,,,,,,,,,,,578822,001,2023-11-13_14h37.38.298,Selektive Wahrnehmung,2023.2.3,60.056355775263036,2023-11-13 14h37.45.559779 +0100,
gesicht1,2,6,38,8,,,,,217.70310502231587,,,,,,,,,,217.66375613794662,217.70310502231587,219.71475699788425,220.6657040124992,3.0024712518788874,222.10234959516674,"[300, 300]",[0.23055555555555557],[0.2361111111111111],[1],[0],[0],[1.4360601963708177],[1],['target_find'],222.10289771924727,223.11891591455787,,,,,,,,,,,,,,,,,,,,,,,,,,,,,,,,578822,001,2023-11-13_14h37.38.298,Selektive Wahrnehmung,2023.2.3,60.056355775263036,2023-11-13 14h37.45.559779 +0100,
spinne1,2,7,39,0,,,,,223.1614977925783,,,,,,,,,,223.1193872387521,223.1614977925783,225.17011503211688,226.12099150451832,3.00218481651973,227.824242446688,"[0, -300]",[0.020370370370370372],[-0.2740740740740741],[1],[0],[0],[1.702649342478253],[1],['target_find'],227.82473652646877,228.84121324587613,,,,,,,,,,,,,,,,,,,,,,,,,,,,,,,,578822,001,2023-11-13_14h37.38.298,Selektive Wahrnehmung,2023.2.3,60.056355775263036,2023-11-13 14h37.45.559779 +0100,
schlange1,2,8,40,2,,,,,228.8804119436536,,,,,,,,,,228.84161402797326,228.8804119436536,230.8922934657894,231.84342878242023,3.002323625376448,232.8963029923616,"[300, 0]",[0.2324074074074074],[-0.05740740740740741],[1],[0],[0],[1.0522549747256562],[1],['target_find'],232.8969748497475,233.9132416493958,,,,,,,,,,,,,,,,,,,,,,,,,,,,,,,,578822,001,2023-11-13_14h37.38.298,Selektive Wahrnehmung,2023.2.3,60.056355775263036,2023-11-13 14h37.45.559779 +0100,
gesicht3,2,9,41,10,,,,,233.94958566431887,,,,,,,,,,233.91381537355483,233.94958566431887,235.9646879490465,236.91518127499148,3.0020482833497226,237.91800666006748,"[300, 0]",[0.2972222222222222],[-0.005555555555555556],[1],[0],[0],[1.0021947721252218],[1],['target_find'],237.91863585077226,238.93458890833426,,,,,,,,,,,,,,,,,,,,,,,,,,,,,,,,578822,001,2023-11-13_14h37.38.298,Selektive Wahrnehmung,2023.2.3,60.056355775263036,2023-11-13 14h37.45.559779 +0100,
gesicht4,2,10,42,11,,,,,238.97322184639052,,,,,,,,,,238.93499481037725,238.97322184639052,240.98598628351465,241.9367552360054,3.0022749854251742,242.75604124099482,"[0, -300]",[-0.024074074074074074],[-0.2796296296296296],[1],[0],[0],[0.8187811163952574],[1],['target_find'],242.7565262184944,243.77272588934284,,,,,,,,,,,,,,,,,,,,,,,,,,,,,,,,578822,001,2023-11-13_14h37.38.298,Selektive Wahrnehmung,2023.2.3,60.056355775263036,2023-11-13 14h37.45.559779 +0100,
flugzeug1,2,11,43,13,,,,,243.8140556436265,,,,,,,,,,243.7731440224452,243.8140556436265,245.82407178007998,246.77492691914085,3.0022872164845467,248.26133887364995,"[300, 0]",[0.2722222222222222],[-0.05648148148148148],[1],[0],[0],[1.4858373769093305],[1],['target_find'],248.2618841532385,249.2783571750624,,,,,,,,,,,,,,,,,,,,,,,,,,,,,,,,578822,001,2023-11-13_14h37.38.298,Selektive Wahrnehmung,2023.2.3,60.056355775263036,2023-11-13 14h37.45.559779 +0100,
person1,2,12,44,4,,,,,249.32005130243488,,,,,,,,,,249.27882480144035,249.32005130243488,251.32973890576977,252.2806199293118,3.002339838654734,253.2334437072277,"[0, 300]",[0.005555555555555556],[0.21574074074074073],[1],[0],[0],[0.9521664271596819],[1],['target_find'],253.234175866819,254.25010360882152,,,,,,,,,,,,,,,,,,,,,,,,,,,,,,,,578822,001,2023-11-13_14h37.38.298,Selektive Wahrnehmung,2023.2.3,60.056355775263036,2023-11-13 14h37.45.559779 +0100,
gruppe1,2,13,45,6,,,,,254.2880982538918,,,,,,,,,,254.2505931374617,254.2880982538918,256.301140593132,257.2521607099334,3.002148123225197,258.9566145669669,"[300, 300]",[0.25555555555555554],[0.22685185185185186],[1],[0],[0],[1.7036067818989977],[1],['target_find'],258.9577546196524,259.97307393536903,,,,,,,,,,,,,,,,,,,,,,,,,,,,,,,,578822,001,2023-11-13_14h37.38.298,Selektive Wahrnehmung,2023.2.3,60.056355775263036,2023-11-13 14h37.45.559779 +0100,
auto1,2,14,46,12,,,,,260.0203127351124,,,,,,,,,,259.9737836238928,260.0203127351124,262.0235744577367,262.9744389834814,3.001430754782632,264.3110304364236,"[0, 300]",[-0.019444444444444445],[0.23703703703703705],[1],[0],[0],[1.3359983867267147],[1],['target_find'],264.31171025824733,265.32766644470394,,,,,,,,,,,,,,,,,,,,,,,,,,,,,,,,578822,001,2023-11-13_14h37.38.298,Selektive Wahrnehmung,2023.2.3,60.056355775263036,2023-11-13 14h37.45.559779 +0100,
zug1,2,15,47,15,,,,,265.3707267580321,,,,,,,,,,265.32814431109,265.3707267580321,267.37903452222236,268.3299337500939,3.002368852030486,269.1333679597592,"[300, 300]",[0.33055555555555555],[0.35462962962962963],[1],[0],[0],[0.8029438277008012],[1],['target_find'],269.1338498083642,270.1488553819945,,,,,,,,,,,,,,,,,,,,,,,,,,,,,,,,578822,001,2023-11-13_14h37.38.298,Selektive Wahrnehmung,2023.2.3,60.056355775263036,2023-11-13 14h37.45.559779 +0100,
spinne1,3,0,48,0,,,,,270.1836989533622,,,,,,,,,,270.14918363071047,270.1836989533622,272.1839006242808,273.1512723050546,3.002495998633094,274.30388121388387,"[300, 300]",[0.26296296296296295],[0.2222222222222222],[1],[0],[0],[1.1520954868756235],[1],['target_find'],274.30431982688606,275.32077947980724,,,,,,,,,,,,,,,,,,,,,,,,,,,,,,,,578822,001,2023-11-13_14h37.38.298,Selektive Wahrnehmung,2023.2.3,60.056355775263036,2023-11-13 14h37.45.559779 +0100,
gruppe2,3,1,49,7,,,,,275.35754048998933,,,,,,,,,,275.32113617286086,275.35754048998933,277.37224825052544,278.32309656287543,3.0024029853520915,279.14258025668096,"[-300, 0]",[-0.2712962962962963],[-0.05648148148148148],[1],[0],[0],[0.8189250453142449],[1],['target_find'],279.14317929639947,280.1592304871883,,,,,,,,,,,,,,,,,,,,,,,,,,,,,,,,578822,001,2023-11-13_14h37.38.298,Selektive Wahrnehmung,2023.2.3,60.056355775263036,2023-11-13 14h37.45.559779 +0100,
schlange1,3,2,50,2,,,,,280.1999250773806,,,,,,,,,,280.1596915713744,280.1999250773806,282.21046999585815,283.1612170460867,3.0020633587846532,284.8982767512789,"[-300, -300]",[-0.25555555555555554],[-0.28888888888888886],[1],[0],[0],[1.7364273854764178],[1],['target_find'],284.8989036664134,285.91497818171047,,,,,,,,,,,,,,,,,,,,,,,,,,,,,,,,578822,001,2023-11-13_14h37.38.298,Selektive Wahrnehmung,2023.2.3,60.056355775263036,2023-11-13 14h37.45.559779 +0100,
schiff1,3,3,51,14,,,,,285.9558761495864,,,,,,,,,,285.9153892036993,285.9558761495864,287.9662023304263,288.9169616117142,3.0020920877577737,290.65381310367957,"[0, -300]",[-0.012962962962962963],[-0.30185185185185187],[1],[0],[0],[1.7361915811197832],[1],['target_find'],290.6543945077574,291.67058052518405,,,,,,,,,,,,,,,,,,,,,,,,,,,,,,,,578822,001,2023-11-13_14h37.38.298,Selektive Wahrnehmung,2023.2.3,60.056355775263036,2023-11-13 14h37.45.559779 +0100,
spinne2,3,4,52,1,,,,,291.8471242826199,,,,,,,,,,291.6709830139298,291.8471242826199,293.8554036023561,294.6730233327253,3.0025230208411813,296.1099473864306,"[0, -300]",[-0.044444444444444446],[-0.2861111111111111],[1],[0],[0],[1.4364174584625289],[1],['target_find'],296.11043691495433,297.12706268334296,,,,,,,,,,,,,,,,,,,,,,,,,,,,,,,,578822,001,2023-11-13_14h37.38.298,Selektive Wahrnehmung,2023.2.3,60.056355775263036,2023-11-13 14h37.45.559779 +0100,
person1,3,5,53,4,,,,,297.1667642785469,,,,,,,,,,297.12788814061787,297.1667642785469,299.1774579612538,300.1283267537365,3.0013565147528425,301.26447117398493,"[0, 300]",[0.03518518518518519],[0.2490740740740741],[1],[0],[0],[1.1355146607384086],[1],['target_find'],301.26510064920876,302.2811128712492,,,,,,,,,,,,,,,,,,,,,,,,,,,,,,,,578822,001,2023-11-13_14h37.38.298,Selektive Wahrnehmung,2023.2.3,60.056355775263036,2023-11-13 14h37.45.559779 +0100,
flugzeug1,3,6,54,13,,,,,302.32594470353797,,,,,,,,,,302.2815119465813,302.32594470353797,304.33253641531337,305.28341317211743,3.002379945362918,306.20233147602994,"[-300, 0]",[-0.2851851851851852],[-0.037037037037037035],[1],[0],[0],[0.9183582330588251],[1],['target_find'],306.2028090580134,307.2189342044294,,,,,,,,,,,,,,,,,,,,,,,,,,,,,,,,578822,001,2023-11-13_14h37.38.298,Selektive Wahrnehmung,2023.2.3,60.056355775263036,2023-11-13 14h37.45.559779 +0100,
person2,3,7,55,5,,,,,307.24697073956486,,,,,,,,,,307.2192371375859,307.24697073956486,309.2539091889048,310.22156787395943,3.0027158739976585,310.94172845990397,"[-300, 0]",[-0.3527777777777778],[-0.012962962962962963],[1],[0],[0],[0.719714577193372],[1],['target_find'],310.9422256684629,311.9575011797715,,,,,,,,,,,,,,,,,,,,,,,,,,,,,,,,578822,001,2023-11-13_14h37.38.298,Selektive Wahrnehmung,2023.2.3,60.056355775263036,2023-11-13 14h37.45.559779 +0100,
zug1,3,8,56,15,,,,,312.0062987342244,,,,,,,,,,311.95796112623066,312.0062987342244,314.0088775061304,314.95967291190755,3.0022670208709314,315.84546483459417,"[300, -300]",[0.24351851851851852],[-0.2824074074074074],[1],[0],[0],[0.8852321363519877],[1],['target_find'],315.8459495276911,316.86236765165813,,,,,,,,,,,,,,,,,,,,,,,,,,,,,,,,578822,001,2023-11-13_14h37.38.298,Selektive Wahrnehmung,2023.2.3,60.056355775263036,2023-11-13 14h37.45.559779 +0100,
gesicht3,3,9,57,10,,,,,316.9013023850275,,,,,,,,,,316.86278550035786,316.9013023850275,318.9137647424359,319.86456384602934,3.0022869320819154,320.8173958727857,"[300, -300]",[0.22870370370370371],[-0.25092592592592594],[1],[0],[0],[0.9523126315325499],[1],['target_find'],320.8178839791799,321.8340025834041,,,,,,,,,,,,,,,,,,,,,,,,,,,,,,,,578822,001,2023-11-13_14h37.38.298,Selektive Wahrnehmung,2023.2.3,60.056355775263036,2023-11-13 14h37.45.559779 +0100,
gruppe1,3,10,58,6,,,,,321.8721528194146,,,,,,,,,,321.83440620976035,321.8721528194146,323.8854437629925,324.83627074211836,3.002366292057559,325.6384391746251,"[-300, 0]",[-0.26944444444444443],[-0.04722222222222222],[1],[0],[0],[0.8015907262451947],[1],['target_find'],325.6389397965977,326.6561461156234,,,,,,,,,,,,,,,,,,,,,,,,,,,,,,,,578822,001,2023-11-13_14h37.38.298,Selektive Wahrnehmung,2023.2.3,60.056355775263036,2023-11-13 14h37.45.559779 +0100,
gesicht1,3,11,59,8,,,,,326.7030780001078,,,,,,,,,,326.656865190831,326.7030780001078,328.7070482734125,329.6629312495934,3.007038289331831,330.4768648665631,"[-300, 0]",[-0.21388888888888888],[-0.06296296296296296],[1],[0],[0],[0.8130296530434862],[1],['target_find'],330.47735098178964,331.49377735471353,,,,,,,,,,,,,,,,,,,,,,,,,,,,,,,,578822,001,2023-11-13_14h37.38.298,Selektive Wahrnehmung,2023.2.3,60.056355775263036,2023-11-13 14h37.45.559779 +0100,
schlange2,3,12,60,3,,,,,331.52594686532393,,,,,,,,,,331.4942691588076,331.52594686532393,333.52858423267026,334.4958802512847,3.002178274327889,335.6651018438861,"[-300, 300]",[-0.23333333333333334],[0.2675925925925926],[1],[0],[0],[1.1687167040072381],[1],['target_find'],335.66555638588034,336.682175043039,,,,,,,,,,,,,,,,,,,,,,,,,,,,,,,,578822,001,2023-11-13_14h37.38.298,Selektive Wahrnehmung,2023.2.3,60.056355775263036,2023-11-13 14h37.45.559779 +0100,
gesicht4,3,13,61,11,,,,,336.720822772244,,,,,,,,,,336.6825752562145,336.720822772244,338.73359289823566,339.6843951307237,3.0023131009656936,340.8373101014877,"[-300, 300]",[-0.275],[0.2657407407407407],[1],[0],[0],[1.1522997177671641],[1],['target_find'],340.8379117011791,341.8539361542789,,,,,,,,,,,,,,,,,,,,,,,,,,,,,,,,578822,001,2023-11-13_14h37.38.298,Selektive Wahrnehmung,2023.2.3,60.056355775263036,2023-11-13 14h37.45.559779 +0100,
auto1,3,14,62,12,,,,,341.8918198660249,,,,,,,,,,341.8543221451109,341.8918198660249,343.9053218672052,344.8562668906525,3.002411803114228,346.0757330058841,"[-300, 300]",[-0.2712962962962963],[0.287962962962963],[1],[0],[0],[1.2188480177428573],[1],['target_find'],346.0763954765862,347.09249559184536,,,,,,,,,,,,,,,,,,,,,,,,,,,,,,,,578822,001,2023-11-13_14h37.38.298,Selektive Wahrnehmung,2023.2.3,60.056355775263036,2023-11-13 14h37.45.559779 +0100,
gesicht2,3,15,63,9,,,,,347.12688376789447,,,,,,,,,,347.09289779607207,347.12688376789447,349.127306452021,350.09491479047574,3.0025270029436797,351.3145703455666,"[-300, 300]",[-0.25833333333333336],[0.19907407407407407],[1],[0],[0],[1.2191091375425458],[1],['target_find'],351.3150556074688,352.33146690484136,,,,,,,,,,,,,,,,,,,,,,,,,,,,,,,,578822,001,2023-11-13_14h37.38.298,Selektive Wahrnehmung,2023.2.3,60.056355775263036,2023-11-13 14h37.45.559779 +0100,
gruppe1,4,0,64,6,,,,,352.3739753961563,,,,,,,,,,352.33194505563006,352.3739753961563,354.38260998681653,355.3332261927426,3.0018315367633477,356.16897924616933,"[-300, 0]",[-0.2851851851851852],[-0.044444444444444446],[1],[0],[0],[0.8352316670352593],[1],['target_find'],356.1694494325202,357.1860999475466,,,,,,,,,,,,,,,,,,,,,,,,,,,,,,,,578822,001,2023-11-13_14h37.38.298,Selektive Wahrnehmung,2023.2.3,60.056355775263036,2023-11-13 14h37.45.559779 +0100,
gesicht2,4,1,65,9,,,,,357.2319287570426,,,,,,,,,,357.1866042672191,357.2319287570426,359.23742734943517,360.18842442613095,3.0023995720548555,361.30795018933713,"[-300, 300]",[-0.3],[0.2537037037037037],[1],[0],[0],[1.118914776830934],[1],['target_find'],361.3086985622067,362.32445649104193,,,,,,,,,,,,,,,,,,,,,,,,,,,,,,,,578822,001,2023-11-13_14h37.38.298,Selektive Wahrnehmung,2023.2.3,60.056355775263036,2023-11-13 14h37.45.559779 +0100,
zug1,4,2,66,15,,,,,362.36692060902715,,,,,,,,,,362.32486182416324,362.36692060902715,364.3761596438708,365.32668767194264,3.0023364253574982,368.11483698361553,"[-300, -300]",[-0.2361111111111111],[-0.2851851851851852],[1],[0],[0],[2.7874999253544956],[1],['target_find'],368.11552903649863,369.1313051697798,,,,,,,,,,,,,,,,,,,,,,,,,,,,,,,,578822,001,2023-11-13_14h37.38.298,Selektive Wahrnehmung,2023.2.3,60.056355775263036,2023-11-13 14h37.45.559779 +0100,
spinne1,4,3,67,0,,,,,369.1726804351201,,,,,,,,,,369.13172074290924,369.1726804351201,371.18283538043033,372.13374115061015,3.002557438565418,373.47010135033634,"[300, 300]",[0.2537037037037037],[0.2814814814814815],[1],[0],[0],[1.3357327156700194],[1],['target_find'],373.47064691456035,374.48632491449825,,,,,,,,,,,,,,,,,,,,,,,,,,,,,,,,578822,001,2023-11-13_14h37.38.298,Selektive Wahrnehmung,2023.2.3,60.056355775263036,2023-11-13 14h37.45.559779 +0100,
schiff1,4,4,68,14,,,,,374.5148492716253,,,,,,,,,,374.48656754544936,374.5148492716253,376.52158036106266,377.4890461929608,3.002808033954352,378.8250212551793,"[300, -300]",[0.25],[-0.28425925925925927],[1],[0],[0],[1.3354078803677112],[1],['target_find'],378.8255255748518,379.8420421165647,,,,,,,,,,,,,,,,,,,,,,,,,,,,,,,,578822,001,2023-11-13_14h37.38.298,Selektive Wahrnehmung,2023.2.3,60.056355775263036,2023-11-13 14h37.45.559779 +0100,
gruppe2,4,5,69,7,,,,,379.8831923864782,,,,,,,,,,379.84251230291557,379.8831923864782,381.8933095007669,382.84406110213604,3.0020920877577737,383.5305878581712,"[-300, 0]",[-0.19444444444444445],[-0.03148148148148148],[1],[0],[0],[0.6858517697546631],[1],['target_find'],383.53137719107326,384.54663193796296,,,,,,,,,,,,,,,,,,,,,,,,,,,,,,,,578822,001,2023-11-13_14h37.38.298,Selektive Wahrnehmung,2023.2.3,60.056355775263036,2023-11-13 14h37.45.559779 +0100,
gesicht1,4,6,70,8,,,,,384.58667714183684,,,,,,,,,,384.54703641775995,384.58667714183684,386.5981103797676,387.5489222833421,3.002364016370848,389.0193325401051,"[300, 300]",[0.2824074074074074],[0.3175925925925926],[1],[0],[0],[1.469814914977178],[1],['target_find'],389.01997765980195,390.0355225398671,,,,,,,,,,,,,,,,,,,,,,,,,,,,,,,,578822,001,2023-11-13_14h37.38.298,Selektive Wahrnehmung,2023.2.3,60.056355775263036,2023-11-13 14h37.45.559779 +0100,
spinne2,4,7,71,1,,,,,390.21056983585004,,,,,,,,,,390.03600751736667,390.21056983585004,392.2202787725255,393.0448486144887,3.0095689902082086,393.9902427077759,"[0, 300]",[0.004629629629629629],[0.22314814814814815],[1],[0],[0],[0.9445802982663736],[1],['target_find'],393.9907859964296,395.00710257375613,,,,,,,,,,,,,,,,,,,,,,,,,,,,,,,,578822,001,2023-11-13_14h37.38.298,Selektive Wahrnehmung,2023.2.3,60.056355775263036,2023-11-13 14h37.45.559779 +0100,
gesicht3,4,8,72,10,,,,,395.0460122760851,,,,,,,,,,395.0075013646856,395.0460122760851,397.05853806447703,398.00931896362454,3.002295749844052,399.09573854110204,"[0, 300]",[-0.001851851851851852],[0.22777777777777777],[1],[0],[0],[1.0859041644725949],[1],['target_find'],399.0962775630178,400.1121959184529,,,,,,,,,,,,,,,,,,,,,,,,,,,,,,,,578822,001,2023-11-13_14h37.38.298,Selektive Wahrnehmung,2023.2.3,60.056355775263036,2023-11-13 14h37.45.559779 +0100,
schlange1,4,9,73,2,,,,,400.15106665191706,,,,,,,,,,400.11262173147406,400.15106665191706,402.1635853291955,403.1142934105592,3.0021711632143706,404.4845283643808,"[-300, -300]",[-0.32592592592592595],[-0.31203703703703706],[1],[0],[0],[1.369586989749223],[1],['target_find'],404.4853518306045,405.5010110572912,,,,,,,,,,,,,,,,,,,,,,,,,,,,,,,,578822,001,2023-11-13_14h37.38.298,Selektive Wahrnehmung,2023.2.3,60.056355775263036,2023-11-13 14h37.45.559779 +0100,
person1,4,10,74,4,,,,,405.54530614311807,,,,,,,,,,405.5014667370124,405.54530614311807,407.55232992582023,408.50310314493254,3.0021805497817695,409.6561822401127,"[300, 0]",[0.262037037037037],[0.012037037037037037],[1],[0],[0],[1.1524658332346007],[1],['target_find'],409.65685011527967,410.6727971995715,,,,,,,,,,,,,,,,,,,,,,,,,,,,,,,,578822,001,2023-11-13_14h37.38.298,Selektive Wahrnehmung,2023.2.3,60.056355775263036,2023-11-13 14h37.45.559779 +0100,
auto1,4,11,75,12,,,,,410.7162159126019,,,,,,,,,,410.67322386591695,410.7162159126019,412.72410895698704,413.67501785606146,3.0022954653250054,414.9795965271769,"[-300, -300]",[-0.2537037037037037],[-0.31574074074074077],[1],[0],[0],[1.3036397205432877],[1],['target_find'],414.98097153089475,415.9946436297614,,,,,,,,,,,,,,,,,,,,,,,,,,,,,,,,578822,001,2023-11-13_14h37.38.298,Selektive Wahrnehmung,2023.2.3,60.056355775263036,2023-11-13 14h37.45.559779 +0100,
flugzeug1,4,12,76,13,,,,,416.03626067272853,,,,,,,,,,415.99506631400436,416.03626067272853,418.0459363295231,418.99694478395395,3.002381652011536,419.91676591406576,"[-300, 0]",[-0.29907407407407405],[-0.02962962962962963],[1],[0],[0],[0.9191373260691762],[1],['target_find'],419.9176010424271,420.9329857804114,,,,,,,,,,,,,,,,,,,,,,,,,,,,,,,,578822,001,2023-11-13_14h37.38.298,Selektive Wahrnehmung,2023.2.3,60.056355775263036,2023-11-13 14h37.45.559779 +0100,
gesicht4,4,13,77,11,,,,,420.9732030730229,,,,,,,,,,420.93341557565145,420.9732030730229,422.98477511981037,423.9406748781912,3.00787227996625,424.9544294659281,"[300, 0]",[0.21203703703703702],[-0.027777777777777776],[1],[0],[0],[1.0130261259619147],[1],['target_find'],424.95490534126293,425.97136385634076,,,,,,,,,,,,,,,,,,,,,,,,,,,,,,,,578822,001,2023-11-13_14h37.38.298,Selektive Wahrnehmung,2023.2.3,60.056355775263036,2023-11-13 14h37.45.559779 +0100,
person2,4,14,78,5,,,,,426.001786879031,,,,,,,,,,425.97176691389177,426.001786879031,428.00610360549763,428.97351596178487,3.0022323187440634,429.75970602117013,"[300, -300]",[0.3194444444444444],[-0.29074074074074074],[1],[0],[0],[0.7855699708452448],[1],['target_find'],429.7603878341615,430.7762080562534,,,,,,,,,,,,,,,,,,,,,,,,,,,,,,,,578822,001,2023-11-13_14h37.38.298,Selektive Wahrnehmung,2023.2.3,60.056355775263036,2023-11-13 14h37.45.559779 +0100,
schlange2,4,15,79,3,,,,,430.81776337476913,,,,,,,,,,430.7766933181556,430.81776337476913,432.8275809691986,433.7783143661218,3.002177136600949,435.0810754384147,"[-300, -300]",[-0.25925925925925924],[-0.2462962962962963],[1],[0],[0],[1.3022311525419354],[1],['target_find'],435.08159682468977,436.0982521752594,,,,,,,,,,,,,,,,,,,,,,,,,,,,,,,,578822,001,2023-11-13_14h37.38.298,Selektive Wahrnehmung,2023.2.3,60.056355775263036,2023-11-13 14h37.45.559779 +0100,
,,,,,0,0,0,0,442.7222680335399,,,,,,,,,,,,,,,,,,,,,,,,,,,436.11198457633145,439.4691803198075,439.46921189315617,442.6716898579616,442.6726157240337,451.1344716035528,4.0,3.0,schiff1,,,,,,,,,,,,,,,,,,,,,,,578822,001,2023-11-13_14h37.38.298,Selektive Wahrnehmung,2023.2.3,60.056355775263036,2023-11-13 14h37.45.559779 +0100,
,,,,,1,0,1,0,451.1715827645967,,,,,,,,,,,,,,,,,,,,,,,,,,,,,,,451.13513435877394,458.86780850193463,1.0,4.0,zug1,,,,,,,,,,,,,,,,,,,,,,,578822,001,2023-11-13_14h37.38.298,Selektive Wahrnehmung,2023.2.3,60.056355775263036,2023-11-13 14h37.45.559779 +0100,
,,,,,2,0,2,0,458.9013550073141,,,,,,,,,,,,,,,,,,,,,,,,,,,,,,,458.8687884124229,467.17349110136274,4.0,2.0,gesicht3,,,,,,,,,,,,,,,,,,,,,,,578822,001,2023-11-13_14h37.38.298,Selektive Wahrnehmung,2023.2.3,60.056355775263036,2023-11-13 14h37.45.559779 +0100,
,,,,,3,0,3,0,467.20681630901527,,,,,,,,,,,,,,,,,,,,,,,,,,,,,,,467.17380114563275,472.7767738159746,1.0,5.0,gruppe2,,,,,,,,,,,,,,,,,,,,,,,578822,001,2023-11-13_14h37.38.298,Selektive Wahrnehmung,2023.2.3,60.056355775263036,2023-11-13 14h37.45.559779 +0100,
,,,,,4,0,4,0,472.8099656192353,,,,,,,,,,,,,,,,,,,,,,,,,,,,,,,472.77709580690134,481.6694788725581,2.0,4.0,gesicht4,,,,,,,,,,,,,,,,,,,,,,,578822,001,2023-11-13_14h37.38.298,Selektive Wahrnehmung,2023.2.3,60.056355775263036,2023-11-13 14h37.45.559779 +0100,
,,,,,,,,,,,,,,,,,,,,,,,,,,,,,,,,,,,,,,,,,,,,,481.675750584458,487.4518004896818,32 ,1.0,487.45181954745203,508.97639937349595,3.0,2.0,508.9764170090202,512.142004257068,512.1420637058327,526.9659938326804,4.0,3.0,4.0,2.0,526.9660231304588,537.3016113484045,3.0,3.0,537.3016289840452,541.5712028039852,,,,,,,,
