Target,trials.thisRepN,trials.thisTrialN,trials.thisN,trials.thisIndex,trials_2.thisRepN,trials_2.thisTrialN,trials_2.thisN,trials_2.thisIndex,thisRow.t,notes,Data_transparency.started,key_resp_data_transp.started,Data_transparency.stopped,key_resp_data_transp.keys,key_resp_data_transp.rt,key_resp_data_transp.duration,instructions.started,instructions.stopped,trial.started,target_show.started,target_show.stopped,target_find.started,mouse.started,trial.stopped,target_position_x_y,mouse.x,mouse.y,mouse.leftButton,mouse.midButton,mouse.rightButton,mouse.time,mouse.corr,mouse.clicked_name,feedback.started,feedback.stopped,instructions_survey.started,instructions_survey.stopped,instructions_ratings.started,instructions_ratings.stopped,survey_ratings.started,survey_ratings.stopped,furcht.response,liebenswert.response,rated_image,survey_gen.started,survey_gen.stopped,age.text,gender.response,survey_games.started,survey_games.stopped,pc_frequency.response,reaction_games_frequency.response,instructions_neuro.started,instructions_neuro.stopped,survey_neuro.started,survey_neuro.stopped,neuro_1_rev.response,neuro_2.response,neuro_3.response,neuro_4_rev.response,survey_fear.started,survey_fear.stopped,specific_fear_spider.response,specific_fear_snake.response,thanks.started,thanks.stopped,participant,session,date,expName,psychopyVersion,frameRate,expStart,
,,,,,,,,,,,0.01609179936349392,0.03246060013771057,9.367415100336075,z,9.333151699975133,None,,,,,,,,,,,,,,,,,,,,,,,,,,,,,,,,,,,,,,,,,,,,,,,,,,,590610,001,2023-11-06_13h31.52.265,Selektive Wahrnehmung,2023.2.3,59.98015844043586,2023-11-06 13h32.48.556652 +0100,
,,,,,,,,,,,,,,,,,9.36747319996357,27.28382460027933,,,,,,,,,,,,,,,,,,,,,,,,,,,,,,,,,,,,,,,,,,,,,,,,,590610,001,2023-11-06_13h31.52.265,Selektive Wahrnehmung,2023.2.3,59.98015844043586,2023-11-06 13h32.48.556652 +0100,
spinne1,0,0,0,0,,,,,27.348313700407743,,,,,,,,,,27.301743799820542,27.348313700407743,29.34814270026982,30.314913099631667,3.0311591997742653,31.616924600675702,"[-300, 0]",[-0.19722222222222222],[-0.03425925925925926],[1],[0],[0],[1.3013369999825954],[1],['target_find'],31.618552999570966,32.63247090019286,,,,,,,,,,,,,,,,,,,,,,,,,,,,,,,,590610,001,2023-11-06_13h31.52.265,Selektive Wahrnehmung,2023.2.3,59.98015844043586,2023-11-06 13h32.48.556652 +0100,
gesicht4,0,1,1,11,,,,,32.76482420042157,,,,,,,,,,32.63308119960129,32.76482420042157,34.76451629959047,35.69782330095768,2.999048599973321,36.367661099880934,"[0, 300]",[-0.14444444444444443],[0.4046296296296296],[1],[0],[0],[0.734824899584055],[0],['dis3'],36.36882309988141,37.38189640082419,,,,,,,,,,,,,,,,,,,,,,,,,,,,,,,,590610,001,2023-11-06_13h31.52.265,Selektive Wahrnehmung,2023.2.3,59.98015844043586,2023-11-06 13h32.48.556652 +0100,
person1,0,2,2,4,,,,,37.43107789941132,,,,,,,,,,37.38238739967346,37.43107789941132,39.43135219998658,40.43132540024817,3.0495122000575066,41.03331070020795,"[300, 300]",[0.24537037037037038],[0.20277777777777778],[1],[0],[0],[0.6012648995965719],[1],['target_find'],41.03430370055139,42.04873510077596,,,,,,,,,,,,,,,,,,,,,,,,,,,,,,,,590610,001,2023-11-06_13h31.52.265,Selektive Wahrnehmung,2023.2.3,59.98015844043586,2023-11-06 13h32.48.556652 +0100,
gesicht1,0,3,3,8,,,,,42.16439810022712,,,,,,,,,,42.04935649968684,42.16439810022712,44.1644778996706,45.11447519995272,2.999219400808215,45.684507900848985,"[300, 0]",[0.3490740740740741],[-0.002777777777777778],[1],[0],[0],[0.6351021993905306],[1],['target_find'],45.68595870025456,46.69841060042381,,,,,,,,,,,,,,,,,,,,,,,,,,,,,,,,590610,001,2023-11-06_13h31.52.265,Selektive Wahrnehmung,2023.2.3,59.98015844043586,2023-11-06 13h32.48.556652 +0100,
person2,0,4,4,5,,,,,46.73113049939275,,,,,,,,,,46.69900380074978,46.73113049939275,48.73074029944837,49.764309199526906,3.0659933015704155,50.484304800629616,"[0, -300]",[0.04814814814814815],[-0.175],[1],[0],[0],[0.7190487999469042],[1],['target_find'],50.485752400010824,51.498752599582076,,,,,,,,,,,,,,,,,,,,,,,,,,,,,,,,590610,001,2023-11-06_13h31.52.265,Selektive Wahrnehmung,2023.2.3,59.98015844043586,2023-11-06 13h32.48.556652 +0100,
schlange1,0,5,5,2,,,,,51.54737799987197,,,,,,,,,,51.49949670024216,51.54737799987197,53.54731949977577,54.53071600012481,3.0322287995368242,55.53287620097399,"[300, -300]",[0.18981481481481483],[-0.28888888888888886],[1],[0],[0],[1.0011737998574972],[1],['target_find'],55.5338963996619,56.54838800057769,,,,,,,,,,,,,,,,,,,,,,,,,,,,,,,,590610,001,2023-11-06_13h31.52.265,Selektive Wahrnehmung,2023.2.3,59.98015844043586,2023-11-06 13h32.48.556652 +0100,
gruppe2,0,6,6,7,,,,,56.58047189936042,,,,,,,,,,56.54901609942317,56.58047189936042,58.5806317999959,59.58060310035944,3.0322895999997854,60.449977500364184,"[0, 300]",[0.002777777777777778],[0.2777777777777778],[1],[0],[0],[0.8685487993061543],[1],['target_find'],60.451140800490975,61.464682599529624,,,,,,,,,,,,,,,,,,,,,,,,,,,,,,,,590610,001,2023-11-06_13h31.52.265,Selektive Wahrnehmung,2023.2.3,59.98015844043586,2023-11-06 13h32.48.556652 +0100,
gruppe1,0,7,7,6,,,,,61.513612400740385,,,,,,,,,,61.4652996994555,61.513612400740385,63.513579400256276,64.49713760055602,2.999047501012683,64.98403899930418,"[0, 300]",[-0.008333333333333333],[0.2611111111111111],[1],[0],[0],[0.519022099673748],[1],['target_find'],64.98542829975486,65.99797149933875,,,,,,,,,,,,,,,,,,,,,,,,,,,,,,,,590610,001,2023-11-06_13h31.52.265,Selektive Wahrnehmung,2023.2.3,59.98015844043586,2023-11-06 13h32.48.556652 +0100,
gesicht2,0,8,8,9,,,,,66.04673480056226,,,,,,,,,,65.99864749982953,66.04673480056226,68.04674240015447,69.04695400036871,3.0490547008812428,69.59927150048316,"[300, 300]",[0.22962962962962963],[0.2796296296296296],[1],[0],[0],[0.551494600251317],[1],['target_find'],69.60043659992516,70.61425470001996,,,,,,,,,,,,,,,,,,,,,,,,,,,,,,,,590610,001,2023-11-06_13h31.52.265,Selektive Wahrnehmung,2023.2.3,59.98015844043586,2023-11-06 13h32.48.556652 +0100,
schiff1,0,9,9,14,,,,,70.66325790062547,,,,,,,,,,70.61486590094864,70.66325790062547,72.6633934006095,73.64653529971838,2.999083301052451,74.16610370017588,"[0, 300]",[0.03796296296296296],[0.23703703703703705],[1],[0],[0],[0.5516647007316351],[1],['target_find'],74.16725930012763,75.18082890100777,,,,,,,,,,,,,,,,,,,,,,,,,,,,,,,,590610,001,2023-11-06_13h31.52.265,Selektive Wahrnehmung,2023.2.3,59.98015844043586,2023-11-06 13h32.48.556652 +0100,
schlange2,0,10,10,3,,,,,75.22980370000005,,,,,,,,,,75.18144039995968,75.22980370000005,77.22976230084896,78.21302030049264,2.999092699959874,78.86440259963274,"[300, 0]",[0.3574074074074074],[-0.049074074074074076],[1],[0],[0],[0.6836218014359474],[1],['target_find'],78.86494290083647,79.88090609945357,,,,,,,,,,,,,,,,,,,,,,,,,,,,,,,,590610,001,2023-11-06_13h31.52.265,Selektive Wahrnehmung,2023.2.3,59.98015844043586,2023-11-06 13h32.48.556652 +0100,
flugzeug1,0,11,11,13,,,,,79.92976029962301,,,,,,,,,,79.88171719945967,79.92976029962301,81.92963460087776,82.91307070106268,3.0322414003312588,83.69884710013866,"[0, 300]",[0.000925925925925926],[0.28425925925925927],[1],[0],[0],[0.7850476987659931],[1],['target_find'],83.69973280094564,84.71408070065081,,,,,,,,,,,,,,,,,,,,,,,,,,,,,,,,590610,001,2023-11-06_13h31.52.265,Selektive Wahrnehmung,2023.2.3,59.98015844043586,2023-11-06 13h32.48.556652 +0100,
auto1,0,12,12,12,,,,,84.81274849921465,,,,,,,,,,84.71495950035751,84.81274849921465,86.81276270002127,87.7627796009183,3.0487670991569757,88.9142726007849,"[-300, -300]",[-0.287962962962963],[-0.25462962962962965],[1],[0],[0],[1.1509440001100302],[1],['target_find'],88.91491880081594,89.93042400106788,,,,,,,,,,,,,,,,,,,,,,,,,,,,,,,,590610,001,2023-11-06_13h31.52.265,Selektive Wahrnehmung,2023.2.3,59.98015844043586,2023-11-06 13h32.48.556652 +0100,
gesicht3,0,13,13,10,,,,,89.9791988003999,,,,,,,,,,89.93117420002818,89.9791988003999,91.97915850020945,92.99607850052416,3.0657214988023043,93.79820949956775,"[0, -300]",[-0.12407407407407407],[-0.30277777777777776],[1],[0],[0],[0.8013372998684645],[1],['target_find'],93.79938070103526,94.81294929981232,,,,,,,,,,,,,,,,,,,,,,,,,,,,,,,,590610,001,2023-11-06_13h31.52.265,Selektive Wahrnehmung,2023.2.3,59.98015844043586,2023-11-06 13h32.48.556652 +0100,
zug1,0,14,14,15,,,,,94.92909630015492,,,,,,,,,,94.81320719979703,94.92909630015492,96.92908480018377,97.84588309936225,3.033026499673724,98.56536290049553,"[300, -300]",[0.27685185185185185],[-0.29814814814814816],[1],[0],[0],[0.7186277005821466],[1],['target_find'],98.56652859970927,99.58009389974177,,,,,,,,,,,,,,,,,,,,,,,,,,,,,,,,590610,001,2023-11-06_13h31.52.265,Selektive Wahrnehmung,2023.2.3,59.98015844043586,2023-11-06 13h32.48.556652 +0100,
spinne2,0,15,15,1,,,,,99.79556390084326,,,,,,,,,,99.58096339926124,99.79556390084326,101.79559480026364,102.64553810097277,3.06551449932158,103.64850060082972,"[0, -300]",[0.049074074074074076],[-0.26481481481481484],[1],[0],[0],[1.002148799598217],[1],['target_find'],103.64955430105329,104.66310010105371,,,,,,,,,,,,,,,,,,,,,,,,,,,,,,,,590610,001,2023-11-06_13h31.52.265,Selektive Wahrnehmung,2023.2.3,59.98015844043586,2023-11-06 13h32.48.556652 +0100,
spinne1,1,0,16,0,,,,,104.7290007006377,,,,,,,,,,104.66367530077696,104.7290007006377,106.72874250076711,107.71186609938741,3.048885900527239,108.41470750048757,"[300, 0]",[0.19166666666666668],[-0.07037037037037037],[1],[0],[0],[0.702056098729372],[1],['target_find'],108.41574840061367,109.42982410080731,,,,,,,,,,,,,,,,,,,,,,,,,,,,,,,,590610,001,2023-11-06_13h31.52.265,Selektive Wahrnehmung,2023.2.3,59.98015844043586,2023-11-06 13h32.48.556652 +0100,
gesicht1,1,1,17,8,,,,,109.47854500077665,,,,,,,,,,109.43060260079801,109.47854500077665,111.47870320081711,112.47868140041828,3.0489254985004663,113.04694749973714,"[0, 300]",[0.03518518518518519],[0.33425925925925926],[1],[0],[0],[0.5675812996923923],[1],['target_find'],113.04772510007024,114.0627945009619,,,,,,,,,,,,,,,,,,,,,,,,,,,,,,,,590610,001,2023-11-06_13h31.52.265,Selektive Wahrnehmung,2023.2.3,59.98015844043586,2023-11-06 13h32.48.556652 +0100,
gesicht3,1,2,18,10,,,,,114.09513729996979,,,,,,,,,,114.06340450048447,114.09513729996979,116.09503680095077,117.11190550029278,2.9990198016166687,117.68179349973798,"[-300, 0]",[-0.17962962962962964],[0.025925925925925925],[1],[0],[0],[0.6186389997601509],[1],['target_find'],117.68292400054634,118.6959192994982,,,,,,,,,,,,,,,,,,,,,,,,,,,,,,,,590610,001,2023-11-06_13h31.52.265,Selektive Wahrnehmung,2023.2.3,59.98015844043586,2023-11-06 13h32.48.556652 +0100,
schlange2,1,3,19,3,,,,,118.72827119939029,,,,,,,,,,118.69652630016208,118.72827119939029,120.72825269959867,121.7446554992348,2.9991964008659124,122.82961590029299,"[-300, 300]",[-0.2175925925925926],[0.20833333333333334],[1],[0],[0],[1.1334760002791882],[1],['target_find'],122.83014070056379,123.84588680043817,,,,,,,,,,,,,,,,,,,,,,,,,,,,,,,,590610,001,2023-11-06_13h31.52.265,Selektive Wahrnehmung,2023.2.3,59.98015844043586,2023-11-06 13h32.48.556652 +0100,
gesicht2,1,4,20,9,,,,,123.87794600054622,,,,,,,,,,123.84664550051093,123.87794600054622,125.87797709926963,126.87798430025578,3.0321639999747276,127.44787370041013,"[300, 0]",[0.387037037037037],[-0.032407407407407406],[1],[0],[0],[0.5689460001885891],[1],['target_find'],127.44919369928539,128.46221280097961,,,,,,,,,,,,,,,,,,,,,,,,,,,,,,,,590610,001,2023-11-06_13h31.52.265,Selektive Wahrnehmung,2023.2.3,59.98015844043586,2023-11-06 13h32.48.556652 +0100,
gruppe2,1,5,21,7,,,,,128.49445670098066,,,,,,,,,,128.4627944007516,128.49445670098066,130.49451999925077,131.49474680051208,3.0328161995857954,132.31504580006003,"[300, 0]",[0.2074074074074074],[-0.03611111111111111],[1],[0],[0],[0.8191433995962143],[1],['target_find'],132.31618029996753,133.32833099924028,,,,,,,,,,,,,,,,,,,,,,,,,,,,,,,,590610,001,2023-11-06_13h31.52.265,Selektive Wahrnehmung,2023.2.3,59.98015844043586,2023-11-06 13h32.48.556652 +0100,
gesicht4,1,6,22,11,,,,,133.37757349945605,,,,,,,,,,133.3288244009018,133.37757349945605,135.37730029970407,136.3441669009626,3.015894800424576,136.77897519990802,"[300, 0]",[0.21574074074074073],[-0.011111111111111112],[1],[0],[0],[0.43425210006535053],[1],['target_find'],136.77945140004158,137.79471609927714,,,,,,,,,,,,,,,,,,,,,,,,,,,,,,,,590610,001,2023-11-06_13h31.52.265,Selektive Wahrnehmung,2023.2.3,59.98015844043586,2023-11-06 13h32.48.556652 +0100,
schiff1,1,7,23,14,,,,,137.82775839976966,,,,,,,,,,137.79503240063787,137.82775839976966,139.8275173008442,140.8105544000864,3.015906499698758,141.31521439924836,"[300, 0]",[0.21666666666666667],[-0.014814814814814815],[1],[0],[0],[0.5041884016245604],[1],['target_find'],141.3157343994826,142.32830319926143,,,,,,,,,,,,,,,,,,,,,,,,,,,,,,,,590610,001,2023-11-06_13h31.52.265,Selektive Wahrnehmung,2023.2.3,59.98015844043586,2023-11-06 13h32.48.556652 +0100,
flugzeug1,1,8,24,13,,,,,142.36065920069814,,,,,,,,,,142.32884060032666,142.36065920069814,144.36068220064044,145.37747059948742,2.9991813004016876,146.18053420074284,"[-300, 300]",[-0.44814814814814813],[0.32685185185185184],[1],[0],[0],[0.8516038004308939],[],[],146.18193370103836,147.19517860002816,,,,,,,,,,,,,,,,,,,,,,,,,,,,,,,,590610,001,2023-11-06_13h31.52.265,Selektive Wahrnehmung,2023.2.3,59.98015844043586,2023-11-06 13h32.48.556652 +0100,
auto1,1,9,25,12,,,,,147.2439271993935,,,,,,,,,,147.19590199925005,147.2439271993935,149.24372510053217,150.22731140069664,3.032218800857663,151.06276400014758,"[300, -300]",[0.3074074074074074],[-0.38796296296296295],[1],[0],[0],[0.8347128983587027],[1],['target_find'],151.06359110027552,152.07788749970496,,,,,,,,,,,,,,,,,,,,,,,,,,,,,,,,590610,001,2023-11-06_13h31.52.265,Selektive Wahrnehmung,2023.2.3,59.98015844043586,2023-11-06 13h32.48.556652 +0100,
spinne2,1,10,26,1,,,,,152.31042960099876,,,,,,,,,,152.07838189974427,152.31042960099876,154.31032779999077,155.11009570024908,3.0322713013738394,155.96236460097134,"[300, 300]",[0.17962962962962964],[0.2777777777777778],[1],[0],[0],[0.8515931982547045],[1],['target_find'],155.96321340091527,156.97800350002944,,,,,,,,,,,,,,,,,,,,,,,,,,,,,,,,590610,001,2023-11-06_13h31.52.265,Selektive Wahrnehmung,2023.2.3,59.98015844043586,2023-11-06 13h32.48.556652 +0100,
zug1,1,11,27,15,,,,,157.06026449985802,,,,,,,,,,156.9787575993687,157.06026449985802,159.0601591002196,160.02680609934032,3.048871200531721,160.68034530058503,"[300, 0]",[0.25092592592592594],[-0.018518518518518517],[1],[0],[0],[0.652598399668932],[1],['target_find'],160.68177250027657,161.6948332004249,,,,,,,,,,,,,,,,,,,,,,,,,,,,,,,,590610,001,2023-11-06_13h31.52.265,Selektive Wahrnehmung,2023.2.3,59.98015844043586,2023-11-06 13h32.48.556652 +0100,
schlange1,1,12,28,2,,,,,161.74330100044608,,,,,,,,,,161.69575889967382,161.74330100044608,163.74342869967222,164.72658569924533,3.0320020988583565,165.661227600649,"[300, -300]",[0.31296296296296294],[-0.2962962962962963],[1],[0],[0],[0.9337946996092796],[1],['target_find'],165.6619058009237,166.67733049951494,,,,,,,,,,,,,,,,,,,,,,,,,,,,,,,,590610,001,2023-11-06_13h31.52.265,Selektive Wahrnehmung,2023.2.3,59.98015844043586,2023-11-06 13h32.48.556652 +0100,
person2,1,13,29,5,,,,,166.72638010047376,,,,,,,,,,166.67816079966724,166.72638010047376,168.72648110054433,169.70968830026686,3.0326121002435684,170.5469250008464,"[0, 300]",[0.05740740740740741],[0.3675925925925926],[1],[0],[0],[0.8360860999673605],[1],['target_find'],170.54822039976716,171.5607553999871,,,,,,,,,,,,,,,,,,,,,,,,,,,,,,,,590610,001,2023-11-06_13h31.52.265,Selektive Wahrnehmung,2023.2.3,59.98015844043586,2023-11-06 13h32.48.556652 +0100,
person1,1,14,30,4,,,,,171.60937060043216,,,,,,,,,,171.56153490021825,171.60937060043216,173.6096912007779,174.6096887998283,3.049143001437187,175.46253770031035,"[300, -300]",[0.19166666666666668],[-0.3685185185185185],[1],[0],[0],[0.851690299808979],[1],['target_find'],175.46395250037313,176.47683680057526,,,,,,,,,,,,,,,,,,,,,,,,,,,,,,,,590610,001,2023-11-06_13h31.52.265,Selektive Wahrnehmung,2023.2.3,59.98015844043586,2023-11-06 13h32.48.556652 +0100,
gruppe1,1,15,31,6,,,,,176.50943950004876,,,,,,,,,,176.47735079936683,176.50943950004876,178.50940670073032,179.50921500101686,3.032464100047946,180.32889950089157,"[0, -300]",[-0.024074074074074074],[-0.2361111111111111],[1],[0],[0],[0.8188738003373146],[1],['target_find'],180.33005299977958,181.34283170104027,,,,,,,,,,,,,,,,,,,,,,,,,,,,,,,,590610,001,2023-11-06_13h31.52.265,Selektive Wahrnehmung,2023.2.3,59.98015844043586,2023-11-06 13h32.48.556652 +0100,
schlange1,2,0,32,2,,,,,181.37565420009196,,,,,,,,,,181.3430764004588,181.37565420009196,183.37600759975612,184.35918630100787,3.016459299251437,184.9961860999465,"[0, -300]",[-0.021296296296296296],[-0.23703703703703705],[1],[0],[0],[0.6361028999090195],[1],['target_find'],184.9976126998663,186.0104296002537,,,,,,,,,,,,,,,,,,,,,,,,,,,,,,,,590610,001,2023-11-06_13h31.52.265,Selektive Wahrnehmung,2023.2.3,59.98015844043586,2023-11-06 13h32.48.556652 +0100,
schiff1,2,1,33,14,,,,,186.05915199965239,,,,,,,,,,186.0120719000697,186.05915199965239,188.05908500030637,189.05920499935746,3.048844400793314,190.5451341997832,"[0, 300]",[0.0824074074074074],[0.25462962962962965],[1],[0],[0],[1.485138000920415],[1],['target_find'],190.5463037006557,191.55965860001743,,,,,,,,,,,,,,,,,,,,,,,,,,,,,,,,590610,001,2023-11-06_13h31.52.265,Selektive Wahrnehmung,2023.2.3,59.98015844043586,2023-11-06 13h32.48.556652 +0100,
person1,2,2,34,4,,,,,191.59211700037122,,,,,,,,,,191.56010410003364,191.59211700037122,193.59227819927037,194.5922573003918,3.032728699967265,196.59431339986622,"[-300, 0]",[-0.19814814814814816],[-0.07962962962962963],[1],[0],[0],[2.0013114009052515],[1],['target_find'],196.59518790058792,197.6098852995783,,,,,,,,,,,,,,,,,,,,,,,,,,,,,,,,590610,001,2023-11-06_13h31.52.265,Selektive Wahrnehmung,2023.2.3,59.98015844043586,2023-11-06 13h32.48.556652 +0100,
spinne1,2,3,35,0,,,,,197.65865729935467,,,,,,,,,,197.6106658000499,197.65865729935467,199.6586339995265,200.65849409997463,3.048666698858142,202.1610266007483,"[-300, 300]",[-0.15925925925925927],[0.22870370370370371],[1],[0],[0],[1.5017980001866817],[1],['target_find'],202.16211250051856,203.17627830058336,,,,,,,,,,,,,,,,,,,,,,,,,,,,,,,,590610,001,2023-11-06_13h31.52.265,Selektive Wahrnehmung,2023.2.3,59.98015844043586,2023-11-06 13h32.48.556652 +0100,
schlange2,2,4,36,3,,,,,203.22501729987562,,,,,,,,,,203.1770357005298,203.22501729987562,205.22511750087142,206.22511369921267,3.048905100673437,207.06009530089796,"[0, -300]",[0.016666666666666666],[-0.43148148148148147],[1],[0],[0],[0.8343135006725788],[],[],207.06087030097842,208.075838400051,,,,,,,,,,,,,,,,,,,,,,,,,,,,,,,,590610,001,2023-11-06_13h31.52.265,Selektive Wahrnehmung,2023.2.3,59.98015844043586,2023-11-06 13h32.48.556652 +0100,
gesicht2,2,5,37,9,,,,,208.1248800009489,,,,,,,,,,208.0764067005366,208.1248800009489,210.12481000088155,211.0913430005312,3.0155625995248556,211.86147440038621,"[-300, 300]",[-0.18796296296296297],[0.1925925925925926],[1],[0],[0],[0.7694354001432657],[1],['target_find'],211.86245400086045,212.87605280056596,,,,,,,,,,,,,,,,,,,,,,,,,,,,,,,,590610,001,2023-11-06_13h31.52.265,Selektive Wahrnehmung,2023.2.3,59.98015844043586,2023-11-06 13h32.48.556652 +0100,
gesicht3,2,6,38,10,,,,,212.9249421004206,,,,,,,,,,212.8769330009818,212.9249421004206,214.92484950087965,215.92481940053403,3.0488412994891405,216.51278180070221,"[0, 300]",[0.1111111111111111],[0.26851851851851855],[1],[0],[0],[0.5874837003648281],[1],['target_find'],216.51331640034914,217.52536120079458,,,,,,,,,,,,,,,,,,,,,,,,,,,,,,,,590610,001,2023-11-06_13h31.52.265,Selektive Wahrnehmung,2023.2.3,59.98015844043586,2023-11-06 13h32.48.556652 +0100,
gesicht4,2,7,39,11,,,,,217.5579736996442,,,,,,,,,,217.5258690994233,217.5579736996442,219.5579636003822,220.54134519957006,3.0160527992993593,221.02752020023763,"[300, 300]",[0.24074074074074073],[0.2222222222222222],[1],[0],[0],[0.4853226002305746],[1],['target_find'],221.0285618994385,222.0422646999359,,,,,,,,,,,,,,,,,,,,,,,,,,,,,,,,590610,001,2023-11-06_13h31.52.265,Selektive Wahrnehmung,2023.2.3,59.98015844043586,2023-11-06 13h32.48.556652 +0100,
auto1,2,8,40,12,,,,,222.0910714007914,,,,,,,,,,222.04302459955215,222.0910714007914,224.0910087004304,225.09093119949102,3.048743899911642,226.19327889941633,"[-300, 300]",[-0.38425925925925924],[0.3527777777777778],[1],[0],[0],[1.1018281001597643],[1],['target_find'],226.19380789995193,227.20840290002525,,,,,,,,,,,,,,,,,,,,,,,,,,,,,,,,590610,001,2023-11-06_13h31.52.265,Selektive Wahrnehmung,2023.2.3,59.98015844043586,2023-11-06 13h32.48.556652 +0100,
flugzeug1,2,9,41,13,,,,,227.2407015003264,,,,,,,,,,227.20886070095003,227.2407015003264,229.2408281005919,230.24074910022318,3.032431500032544,230.97814689949155,"[0, -300]",[-0.075],[-0.22314814814814815],[1],[0],[0],[0.7366247996687889],[1],['target_find'],230.97922880016267,231.99136850051582,,,,,,,,,,,,,,,,,,,,,,,,,,,,,,,,590610,001,2023-11-06_13h31.52.265,Selektive Wahrnehmung,2023.2.3,59.98015844043586,2023-11-06 13h32.48.556652 +0100,
gruppe2,2,10,42,7,,,,,232.02415760047734,,,,,,,,,,231.99193789996207,232.02415760047734,234.02408500015736,235.02414000034332,3.0328505989164114,236.11000929959118,"[-300, -300]",[-0.23333333333333334],[-0.25833333333333336],[1],[0],[0],[1.0850521996617317],[1],['target_find'],236.1110865995288,237.12510509975255,,,,,,,,,,,,,,,,,,,,,,,,,,,,,,,,590610,001,2023-11-06_13h31.52.265,Selektive Wahrnehmung,2023.2.3,59.98015844043586,2023-11-06 13h32.48.556652 +0100,
gruppe1,2,11,43,6,,,,,237.1739179994911,,,,,,,,,,237.12586130015552,237.1739179994911,239.17397100105882,240.15730959922075,3.0322797000408173,240.82544239982963,"[-300, 300]",[-0.24351851851851852],[0.30277777777777776],[1],[0],[0],[0.6675560008734465],[1],['target_find'],240.8259536009282,241.8409544993192,,,,,,,,,,,,,,,,,,,,,,,,,,,,,,,,590610,001,2023-11-06_13h31.52.265,Selektive Wahrnehmung,2023.2.3,59.98015844043586,2023-11-06 13h32.48.556652 +0100,
zug1,2,12,44,15,,,,,241.87389869987965,,,,,,,,,,241.84123349934816,241.87389869987965,243.87358669936657,244.85698539949954,3.0161294005811214,245.3448911998421,"[300, 0]",[0.4046296296296296],[-0.010185185185185186],[1],[0],[0],[0.48712109960615635],[1],['target_find'],245.34603760018945,246.3582266997546,,,,,,,,,,,,,,,,,,,,,,,,,,,,,,,,590610,001,2023-11-06_13h31.52.265,Selektive Wahrnehmung,2023.2.3,59.98015844043586,2023-11-06 13h32.48.556652 +0100,
person2,2,13,45,5,,,,,246.40707750059664,,,,,,,,,,246.35895749926567,246.40707750059664,248.40690799988806,249.3904273007065,3.032473400235176,249.7933096010238,"[300, 0]",[0.3074074074074074],[0.012962962962962963],[1],[0],[0],[0.40179350040853024],[1],['target_find'],249.79443220049143,250.80683889985085,,,,,,,,,,,,,,,,,,,,,,,,,,,,,,,,590610,001,2023-11-06_13h31.52.265,Selektive Wahrnehmung,2023.2.3,59.98015844043586,2023-11-06 13h32.48.556652 +0100,
spinne2,2,14,46,1,,,,,251.00673829950392,,,,,,,,,,250.8071453999728,251.00673829950392,253.0068095009774,253.8400263004005,3.0332928001880646,255.07542780041695,"[-300, -300]",[-0.2564814814814815],[-0.2101851851851852],[1],[0],[0],[1.2347183991223574],[1],['target_find'],255.0762888994068,256.09071649983525,,,,,,,,,,,,,,,,,,,,,,,,,,,,,,,,590610,001,2023-11-06_13h31.52.265,Selektive Wahrnehmung,2023.2.3,59.98015844043586,2023-11-06 13h32.48.556652 +0100,
gesicht1,2,15,47,8,,,,,256.1563806999475,,,,,,,,,,256.0912775993347,256.1563806999475,258.1564543005079,259.15647580102086,2.9991046991199255,259.6917819995433,"[-300, 0]",[-0.2722222222222222],[-0.08055555555555556],[1],[0],[0],[0.6008032988756895],[1],['target_find'],259.69263920001686,260.70753570087254,,,,,,,,,,,,,,,,,,,,,,,,,,,,,,,,590610,001,2023-11-06_13h31.52.265,Selektive Wahrnehmung,2023.2.3,59.98015844043586,2023-11-06 13h32.48.556652 +0100,
schlange1,3,0,48,2,,,,,260.75648769922554,,,,,,,,,,260.7082185000181,260.75648769922554,262.75597370043397,263.7565228007734,3.0492060985416174,264.52541960030794,"[300, -300]",[0.15555555555555556],[-0.22870370370370371],[1],[0],[0],[0.7678909003734589],[1],['target_find'],264.5265653003007,265.5406641010195,,,,,,,,,,,,,,,,,,,,,,,,,,,,,,,,590610,001,2023-11-06_13h31.52.265,Selektive Wahrnehmung,2023.2.3,59.98015844043586,2023-11-06 13h32.48.556652 +0100,
person2,3,1,49,5,,,,,265.589455999434,,,,,,,,,,265.54142690077424,265.589455999434,267.58941940031946,268.5896192993969,3.049234200268984,269.35908699966967,"[-300, -300]",[-0.2611111111111111],[-0.2851851851851852],[1],[0],[0],[0.7682076003402472],[1],['target_find'],269.3606465999037,270.3737084995955,,,,,,,,,,,,,,,,,,,,,,,,,,,,,,,,590610,001,2023-11-06_13h31.52.265,Selektive Wahrnehmung,2023.2.3,59.98015844043586,2023-11-06 13h32.48.556652 +0100,
spinne1,3,2,50,0,,,,,270.422743499279,,,,,,,,,,270.37428949959576,270.422743499279,272.4227112997323,273.42275859974325,2.999092200770974,274.3247043006122,"[0, -300]",[-0.044444444444444446],[-0.28425925925925927],[1],[0],[0],[0.9507967997342348],[1],['target_find'],274.3255585003644,275.3399903997779,,,,,,,,,,,,,,,,,,,,,,,,,,,,,,,,590610,001,2023-11-06_13h31.52.265,Selektive Wahrnehmung,2023.2.3,59.98015844043586,2023-11-06 13h32.48.556652 +0100,
gesicht4,3,3,51,11,,,,,275.38932730071247,,,,,,,,,,275.34056979976594,275.38932730071247,277.38907770067453,278.37255829945207,3.0326525010168552,279.2919085994363,"[300, -300]",[0.20925925925925926],[-0.3138888888888889],[1],[0],[0],[0.9185480996966362],[1],['target_find'],279.2929804008454,280.30675739981234,,,,,,,,,,,,,,,,,,,,,,,,,,,,,,,,590610,001,2023-11-06_13h31.52.265,Selektive Wahrnehmung,2023.2.3,59.98015844043586,2023-11-06 13h32.48.556652 +0100,
gruppe2,3,4,52,7,,,,,280.35571080073714,,,,,,,,,,280.30745990015566,280.35571080073714,282.3556021992117,283.3387163002044,3.0320084001868963,284.10800120048225,"[0, 300]",[0.021296296296296296],[0.19444444444444445],[1],[0],[0],[0.7686165999621153],[1],['target_find'],284.10891010053456,285.12329819984734,,,,,,,,,,,,,,,,,,,,,,,,,,,,,,,,590610,001,2023-11-06_13h31.52.265,Selektive Wahrnehmung,2023.2.3,59.98015844043586,2023-11-06 13h32.48.556652 +0100,
person1,3,5,53,4,,,,,285.17202720046043,,,,,,,,,,285.1240551993251,285.17202720046043,287.171965200454,288.1555400006473,3.0325192995369434,288.85744719952345,"[-300, 300]",[-0.18611111111111112],[0.2861111111111111],[1],[0],[0],[0.7011265009641647],[1],['target_find'],288.85795569978654,289.87290159985423,,,,,,,,,,,,,,,,,,,,,,,,,,,,,,,,590610,001,2023-11-06_13h31.52.265,Selektive Wahrnehmung,2023.2.3,59.98015844043586,2023-11-06 13h32.48.556652 +0100,
gesicht2,3,6,54,9,,,,,289.90531950071454,,,,,,,,,,289.87352970056236,289.90531950071454,291.90522509999573,292.90514379926026,2.999014200642705,293.60752959921956,"[0, -300]",[0.030555555555555555],[-0.25462962962962965],[1],[0],[0],[0.7346908003091812],[1],['target_find'],293.60861019976437,294.6228181999177,,,,,,,,,,,,,,,,,,,,,,,,,,,,,,,,590610,001,2023-11-06_13h31.52.265,Selektive Wahrnehmung,2023.2.3,59.98015844043586,2023-11-06 13h32.48.556652 +0100,
gesicht1,3,7,55,8,,,,,294.6553770005703,,,,,,,,,,294.6234125997871,294.6553770005703,296.6551088001579,297.67168669961393,3.049089800566435,298.29075849987566,"[-300, 0]",[-0.3490740740740741],[-0.03888888888888889],[1],[0],[0],[0.6181306000798941],[1],['target_find'],298.29176750034094,299.305561799556,,,,,,,,,,,,,,,,,,,,,,,,,,,,,,,,590610,001,2023-11-06_13h31.52.265,Selektive Wahrnehmung,2023.2.3,59.98015844043586,2023-11-06 13h32.48.556652 +0100,
spinne2,3,8,56,1,,,,,299.5048811994493,,,,,,,,,,299.30585270002484,299.5048811994493,301.50478140078485,302.338314300403,3.0328430999070406,303.09067939966917,"[0, -300]",[0.058333333333333334],[-0.3277777777777778],[1],[0],[0],[0.7516236994415522],[1],['target_find'],303.09164210036397,304.10577940009534,,,,,,,,,,,,,,,,,,,,,,,,,,,,,,,,590610,001,2023-11-06_13h31.52.265,Selektive Wahrnehmung,2023.2.3,59.98015844043586,2023-11-06 13h32.48.556652 +0100,
gruppe1,3,9,57,6,,,,,304.17161159962416,,,,,,,,,,304.1063688006252,304.17161159962416,306.1713517997414,307.188008999452,2.999108899384737,307.7242687009275,"[0, -300]",[0.014814814814814815],[-0.3037037037037037],[1],[0],[0],[0.6181584000587463],[1],['target_find'],307.72542270086706,308.73926090076566,,,,,,,,,,,,,,,,,,,,,,,,,,,,,,,,590610,001,2023-11-06_13h31.52.265,Selektive Wahrnehmung,2023.2.3,59.98015844043586,2023-11-06 13h32.48.556652 +0100,
auto1,3,10,58,12,,,,,308.7876539994031,,,,,,,,,,308.7401270009577,308.7876539994031,310.7876073997468,311.7877473998815,3.048531299456954,312.62405340000987,"[300, 0]",[0.3972222222222222],[-0.019444444444444445],[1],[0],[0],[0.8358250018209219],[1],['target_find'],312.62452960014343,313.6383158005774,,,,,,,,,,,,,,,,,,,,,,,,,,,,,,,,590610,001,2023-11-06_13h31.52.265,Selektive Wahrnehmung,2023.2.3,59.98015844043586,2023-11-06 13h32.48.556652 +0100,
schlange2,3,11,59,3,,,,,313.6879584006965,,,,,,,,,,313.6389409005642,313.6879584006965,315.68765489943326,316.65446379967034,3.016424899920821,317.6072208993137,"[300, -300]",[0.27037037037037037],[-0.27314814814814814],[1],[0],[0],[0.9515349995344877],[1],['target_find'],317.6086241006851,318.62173240073025,,,,,,,,,,,,,,,,,,,,,,,,,,,,,,,,590610,001,2023-11-06_13h31.52.265,Selektive Wahrnehmung,2023.2.3,59.98015844043586,2023-11-06 13h32.48.556652 +0100,
gesicht3,3,12,60,10,,,,,318.6707271002233,,,,,,,,,,318.6225215997547,318.6707271002233,320.6708198003471,321.6542914994061,3.0326460003852844,322.14044220000505,"[300, 0]",[0.3314814814814815],[-0.009259259259259259],[1],[0],[0],[0.48529049940407276],[1],['target_find'],322.1415957007557,323.1550744995475,,,,,,,,,,,,,,,,,,,,,,,,,,,,,,,,590610,001,2023-11-06_13h31.52.265,Selektive Wahrnehmung,2023.2.3,59.98015844043586,2023-11-06 13h32.48.556652 +0100,
zug1,3,13,61,15,,,,,323.2040045000613,,,,,,,,,,323.1556477006525,323.2040045000613,325.2040692009032,326.2040317002684,3.04903999902308,326.93950220011175,"[-300, 0]",[-0.23148148148148148],[0.023148148148148147],[1],[0],[0],[0.7348255999386311],[1],['target_find'],326.9403677992523,327.95471899956465,,,,,,,,,,,,,,,,,,,,,,,,,,,,,,,,590610,001,2023-11-06_13h31.52.265,Selektive Wahrnehmung,2023.2.3,59.98015844043586,2023-11-06 13h32.48.556652 +0100,
schiff1,3,14,62,14,,,,,327.98728650063276,,,,,,,,,,327.95528840087354,327.98728650063276,329.9871379006654,331.0039383992553,3.0493085011839867,331.7890884000808,"[-300, -300]",[-0.3453703703703704],[-0.18611111111111112],[1],[0],[0],[0.7844561003148556],[1],['target_find'],331.7898990996182,332.80375079996884,,,,,,,,,,,,,,,,,,,,,,,,,,,,,,,,590610,001,2023-11-06_13h31.52.265,Selektive Wahrnehmung,2023.2.3,59.98015844043586,2023-11-06 13h32.48.556652 +0100,
flugzeug1,3,15,63,13,,,,,332.8370353002101,,,,,,,,,,332.8040594998747,332.8370353002101,334.8368073999882,335.8204383999109,3.0167910996824503,336.4399127997458,"[-300, 300]",[-0.26296296296296295],[0.32592592592592595],[1],[0],[0],[0.618639599531889],[1],['target_find'],336.44096739962697,337.4544651005417,,,,,,,,,,,,,,,,,,,,,,,,,,,,,,,,590610,001,2023-11-06_13h31.52.265,Selektive Wahrnehmung,2023.2.3,59.98015844043586,2023-11-06 13h32.48.556652 +0100,
gesicht4,4,0,64,11,,,,,337.50348520092666,,,,,,,,,,337.4550560992211,337.50348520092666,339.50355499982834,340.469926699996,3.01551709882915,340.98903539963067,"[-300, 0]",[-0.22870370370370371],[0.12407407407407407],[1],[0],[0],[0.5184547994285822],[1],['target_find'],340.9897371008992,342.0043425001204,,,,,,,,,,,,,,,,,,,,,,,,,,,,,,,,590610,001,2023-11-06_13h31.52.265,Selektive Wahrnehmung,2023.2.3,59.98015844043586,2023-11-06 13h32.48.556652 +0100,
spinne2,4,1,65,1,,,,,342.18678149953485,,,,,,,,,,342.0049131009728,342.18678149953485,344.1867725998163,345.0531776994467,3.048895198851824,345.63892740011215,"[300, 0]",[0.2518518518518518],[0.03518518518518519],[1],[0],[0],[0.5849536992609501],[1],['target_find'],345.64007749967277,346.65413070097566,,,,,,,,,,,,,,,,,,,,,,,,,,,,,,,,590610,001,2023-11-06_13h31.52.265,Selektive Wahrnehmung,2023.2.3,59.98015844043586,2023-11-06 13h32.48.556652 +0100,
gesicht3,4,2,66,10,,,,,346.71977110020816,,,,,,,,,,346.6547515001148,346.71977110020816,348.7198741994798,349.70316320098937,3.0491141993552446,350.3225046992302,"[300, 0]",[0.24166666666666667],[0.021296296296296296],[1],[0],[0],[0.6185274999588728],[1],['target_find'],350.32365350052714,351.33751560002565,,,,,,,,,,,,,,,,,,,,,,,,,,,,,,,,590610,001,2023-11-06_13h31.52.265,Selektive Wahrnehmung,2023.2.3,59.98015844043586,2023-11-06 13h32.48.556652 +0100,
gesicht1,4,3,67,8,,,,,351.38638710044324,,,,,,,,,,351.3382968008518,351.38638710044324,353.386415399611,354.3865080997348,3.0494694001972675,355.12164429947734,"[0, -300]",[0.030555555555555555],[-0.2740740740740741],[1],[0],[0],[0.734000800177455],[1],['target_find'],355.1224918998778,356.1370250005275,,,,,,,,,,,,,,,,,,,,,,,,,,,,,,,,590610,001,2023-11-06_13h31.52.265,Selektive Wahrnehmung,2023.2.3,59.98015844043586,2023-11-06 13h32.48.556652 +0100,
person1,4,4,68,4,,,,,356.18636319972575,,,,,,,,,,356.13761490024626,356.18636319972575,358.1861665993929,359.1693104002625,3.03235200047493,359.77244600094855,"[-300, 0]",[-0.22870370370370371],[-0.1],[1],[0],[0],[0.6023431997746229],[1],['target_find'],359.77359390072525,360.7866898998618,,,,,,,,,,,,,,,,,,,,,,,,,,,,,,,,590610,001,2023-11-06_13h31.52.265,Selektive Wahrnehmung,2023.2.3,59.98015844043586,2023-11-06 13h32.48.556652 +0100,
gruppe1,4,5,69,6,,,,,360.8192660007626,,,,,,,,,,360.78724049963057,360.8192660007626,362.8190918006003,363.80275120027363,3.0161407999694347,364.3064856994897,"[-300, 0]",[-0.3425925925925926],[0.012037037037037037],[1],[0],[0],[0.5026637986302376],[1],['target_find'],364.3084484003484,365.3204887006432,,,,,,,,,,,,,,,,,,,,,,,,,,,,,,,,590610,001,2023-11-06_13h31.52.265,Selektive Wahrnehmung,2023.2.3,59.98015844043586,2023-11-06 13h32.48.556652 +0100,
schlange1,4,6,70,2,,,,,365.36908609978855,,,,,,,,,,365.3212388008833,365.36908609978855,367.36915370076895,368.35270390100777,3.032489899545908,369.3380887005478,"[-300, 0]",[-0.29074074074074074],[-0.002777777777777778],[1],[0],[0],[0.9844035003334284],[1],['target_find'],369.33908399939537,370.35357890091836,,,,,,,,,,,,,,,,,,,,,,,,,,,,,,,,590610,001,2023-11-06_13h31.52.265,Selektive Wahrnehmung,2023.2.3,59.98015844043586,2023-11-06 13h32.48.556652 +0100,
gruppe2,4,7,71,7,,,,,370.40231310017407,,,,,,,,,,370.35427620075643,370.40231310017407,372.40219029970467,373.40228099934757,3.0487826000899076,374.0202462002635,"[-300, 300]",[-0.25925925925925924],[0.23148148148148148],[1],[0],[0],[0.6174157001078129],[1],['target_find'],374.02076959982514,375.0367859005928,,,,,,,,,,,,,,,,,,,,,,,,,,,,,,,,590610,001,2023-11-06_13h31.52.265,Selektive Wahrnehmung,2023.2.3,59.98015844043586,2023-11-06 13h32.48.556652 +0100,
auto1,4,8,72,12,,,,,375.08545430004597,,,,,,,,,,375.0375296007842,375.08545430004597,377.08556660078466,378.0854135006666,3.048716900870204,378.63840929977596,"[0, 300]",[-0.03981481481481482],[0.23981481481481481],[1],[0],[0],[0.5521584004163742],[1],['target_find'],378.6394740007818,379.6534168999642,,,,,,,,,,,,,,,,,,,,,,,,,,,,,,,,590610,001,2023-11-06_13h31.52.265,Selektive Wahrnehmung,2023.2.3,59.98015844043586,2023-11-06 13h32.48.556652 +0100,
flugzeug1,4,9,73,13,,,,,379.7020251005888,,,,,,,,,,379.6543046999723,379.7020251005888,381.70199239999056,382.66819079965353,3.0148555003106594,383.5211354009807,"[300, 300]",[0.22407407407407406],[0.2638888888888889],[1],[0],[0],[0.8524332996457815],[1],['target_find'],383.5216653998941,384.53531990014017,,,,,,,,,,,,,,,,,,,,,,,,,,,,,,,,590610,001,2023-11-06_13h31.52.265,Selektive Wahrnehmung,2023.2.3,59.98015844043586,2023-11-06 13h32.48.556652 +0100,
schiff1,4,10,74,14,,,,,384.5849639996886,,,,,,,,,,384.53570540063083,384.5849639996886,386.58493909984827,387.55164439976215,3.0164113994687796,388.1379231996834,"[300, 0]",[0.3962962962962963],[0.008333333333333333],[1],[0],[0],[0.5857599005103111],[1],['target_find'],388.1384453997016,389.15246929973364,,,,,,,,,,,,,,,,,,,,,,,,,,,,,,,,590610,001,2023-11-06_13h31.52.265,Selektive Wahrnehmung,2023.2.3,59.98015844043586,2023-11-06 13h32.48.556652 +0100,
schlange2,4,11,75,3,,,,,389.184967700392,,,,,,,,,,389.15295450016856,389.184967700392,391.1850658003241,392.1850704997778,2.9991021007299423,393.3870321009308,"[-300, 0]",[-0.2462962962962963],[0.05925925925925926],[1],[0],[0],[1.234552700072527],[1],['target_find'],393.3878830000758,394.4026286005974,,,,,,,,,,,,,,,,,,,,,,,,,,,,,,,,590610,001,2023-11-06_13h31.52.265,Selektive Wahrnehmung,2023.2.3,59.98015844043586,2023-11-06 13h32.48.556652 +0100,
spinne1,4,12,76,0,,,,,394.4513523001224,,,,,,,,,,394.4033436998725,394.4513523001224,396.45134410075843,397.4347680993378,3.032405499368906,398.13830439932644,"[300, 300]",[0.2222222222222222],[0.2712962962962963],[1],[0],[0],[0.7023136001080275],[1],['target_find'],398.1397080998868,399.15250340104103,,,,,,,,,,,,,,,,,,,,,,,,,,,,,,,,590610,001,2023-11-06_13h31.52.265,Selektive Wahrnehmung,2023.2.3,59.98015844043586,2023-11-06 13h32.48.556652 +0100,
gesicht2,4,13,77,9,,,,,399.20118089951575,,,,,,,,,,399.15326650068164,399.20118089951575,401.2012732010335,402.18454040028155,3.032107200473547,402.6358275003731,"[300, 0]",[0.21851851851851853],[0.07407407407407407],[1],[0],[0],[0.4507280997931957],[1],['target_find'],402.6363559998572,403.6523116007447,,,,,,,,,,,,,,,,,,,,,,,,,,,,,,,,590610,001,2023-11-06_13h31.52.265,Selektive Wahrnehmung,2023.2.3,59.98015844043586,2023-11-06 13h32.48.556652 +0100,
person2,4,14,78,5,,,,,403.7010110002011,,,,,,,,,,403.65305859968066,403.7010110002011,405.7010443005711,406.6842874009162,3.0320428013801575,407.18836859986186,"[300, 300]",[0.26296296296296295],[0.2037037037037037],[1],[0],[0],[0.5031388998031616],[1],['target_find'],407.1897643003613,408.20207129977643,,,,,,,,,,,,,,,,,,,,,,,,,,,,,,,,590610,001,2023-11-06_13h31.52.265,Selektive Wahrnehmung,2023.2.3,59.98015844043586,2023-11-06 13h32.48.556652 +0100,
zug1,4,15,79,15,,,,,408.2509765997529,,,,,,,,,,408.2027011997998,408.2509765997529,410.25101180002093,411.2509649004787,3.0489773005247116,411.78680079989135,"[0, 300]",[0.03981481481481482],[0.31203703703703706],[1],[0],[0],[0.5350601002573967],[1],['target_find'],411.7877866998315,412.8006762005389,,,,,,,,,,,,,,,,,,,,,,,,,,,,,,,,590610,001,2023-11-06_13h31.52.265,Selektive Wahrnehmung,2023.2.3,59.98015844043586,2023-11-06 13h32.48.556652 +0100,
,,,,,0,0,0,0,419.75058319978416,,,,,,,,,,,,,,,,,,,,,,,,,,,412.81101090088487,415.9687722995877,415.9688038006425,419.6852122992277,419.6861806008965,430.8225861005485,2.0,3.0,gesicht2,,,,,,,,,,,,,,,,,,,,,,,590610,001,2023-11-06_13h31.52.265,Selektive Wahrnehmung,2023.2.3,59.98015844043586,2023-11-06 13h32.48.556652 +0100,
,,,,,1,0,1,0,430.86765520088375,,,,,,,,,,,,,,,,,,,,,,,,,,,,,,,430.82295810058713,438.34008330106735,1.0,3.0,person2,,,,,,,,,,,,,,,,,,,,,,,590610,001,2023-11-06_13h31.52.265,Selektive Wahrnehmung,2023.2.3,59.98015844043586,2023-11-06 13h32.48.556652 +0100,
,,,,,2,0,2,0,438.38428569957614,,,,,,,,,,,,,,,,,,,,,,,,,,,,,,,438.3404086008668,443.22360710054636,1.0,4.0,auto1,,,,,,,,,,,,,,,,,,,,,,,590610,001,2023-11-06_13h31.52.265,Selektive Wahrnehmung,2023.2.3,59.98015844043586,2023-11-06 13h32.48.556652 +0100,
,,,,,3,0,3,0,443.267261300236,,,,,,,,,,,,,,,,,,,,,,,,,,,,,,,443.22393050044775,448.30510099977255,1.0,4.0,gesicht4,,,,,,,,,,,,,,,,,,,,,,,590610,001,2023-11-06_13h31.52.265,Selektive Wahrnehmung,2023.2.3,59.98015844043586,2023-11-06 13h32.48.556652 +0100,
,,,,,4,0,4,0,448.34936179965734,,,,,,,,,,,,,,,,,,,,,,,,,,,,,,,448.3054213002324,453.4561666995287,1.0,5.0,spinne2,,,,,,,,,,,,,,,,,,,,,,,590610,001,2023-11-06_13h31.52.265,Selektive Wahrnehmung,2023.2.3,59.98015844043586,2023-11-06 13h32.48.556652 +0100,
,,,,,,,,,,,,,,,,,,,,,,,,,,,,,,,,,,,,,,,,,,,,,453.46027239970863,462.81849000044167, weiblich,None,462.8185080997646,473.0720588993281,2.0,1.0,473.0720809008926,477.349916100502,477.34994729980826,494.217453699559,3.0,4.0,5.0,2.0,494.21748249977827,502.58743209950626,1.0,1.0,502.58745379932225,503.5823339000344,,,,,,,,
