Target,trials.thisRepN,trials.thisTrialN,trials.thisN,trials.thisIndex,trials_2.thisRepN,trials_2.thisTrialN,trials_2.thisN,trials_2.thisIndex,thisRow.t,notes,Data_transparency.started,key_resp_data_transp.started,Data_transparency.stopped,key_resp_data_transp.keys,key_resp_data_transp.rt,key_resp_data_transp.duration,instructions.started,instructions.stopped,trial.started,target_show.started,target_show.stopped,target_find.started,mouse.started,trial.stopped,target_position_x_y,mouse.x,mouse.y,mouse.leftButton,mouse.midButton,mouse.rightButton,mouse.time,mouse.corr,mouse.clicked_name,feedback.started,feedback.stopped,instructions_survey.started,instructions_survey.stopped,instructions_ratings.started,instructions_ratings.stopped,survey_ratings.started,survey_ratings.stopped,furcht.response,liebenswert.response,rated_image,survey_gen.started,survey_gen.stopped,age.text,gender.response,survey_games.started,survey_games.stopped,pc_frequency.response,reaction_games_frequency.response,instructions_neuro.started,instructions_neuro.stopped,survey_neuro.started,survey_neuro.stopped,neuro_1_rev.response,neuro_2.response,neuro_3.response,neuro_4_rev.response,survey_fear.started,survey_fear.stopped,specific_fear_spider.response,specific_fear_snake.response,thanks.started,thanks.stopped,participant,session,date,expName,psychopyVersion,frameRate,expStart,
,,,,,,,,,,,0.00456077962735435,0.016828292647915077,40.1250906310579,z,40.10046657395651,None,,,,,,,,,,,,,,,,,,,,,,,,,,,,,,,,,,,,,,,,,,,,,,,,,,,618802,001,2023-11-06_13h59.42.654,Selektive Wahrnehmung,2023.2.3,59.93319024622397,2023-11-06 14h00.51.927290 +0100,
,,,,,,,,,,,,,,,,,40.125155484354764,55.4740693480835,,,,,,,,,,,,,,,,,,,,,,,,,,,,,,,,,,,,,,,,,,,,,,,,,618802,001,2023-11-06_13h59.42.654,Selektive Wahrnehmung,2023.2.3,59.93319024622397,2023-11-06 14h00.51.927290 +0100,
flugzeug1,0,0,0,13,,,,,55.52312233351222,,,,,,,,,,55.490969320691875,55.52312233351222,57.52439180834517,58.47796993253178,3.0040866110084607,59.51231288188319,"[300, 0]",[0.2796296296296296],[0.025],[1],[0],[0],[1.033718309707183],[1],['target_find'],59.51329592132424,60.52814391287757,,,,,,,,,,,,,,,,,,,,,,,,,,,,,,,,618802,001,2023-11-06_13h59.42.654,Selektive Wahrnehmung,2023.2.3,59.93319024622397,2023-11-06 14h00.51.927290 +0100,
person1,0,1,1,4,,,,,60.82418186001996,,,,,,,,,,60.52864908592346,60.82418186001996,62.82970320798995,63.53138600880993,3.003377491411811,64.44949080206607,"[0, -300]",[0.05],[-0.23148148148148148],[1],[0],[0],[0.9174431758547144],[1],['target_find'],64.45003579731201,65.46660809010609,,,,,,,,,,,,,,,,,,,,,,,,,,,,,,,,618802,001,2023-11-06_13h59.42.654,Selektive Wahrnehmung,2023.2.3,59.93319024622397,2023-11-06 14h00.51.927290 +0100,
gesicht3,0,2,2,10,,,,,65.53959307969671,,,,,,,,,,65.46718920977582,65.53959307969671,67.55124391751451,68.46891464879445,3.0024536163818993,69.33764930124744,"[-300, -300]",[-0.24351851851851852],[-0.29814814814814816],[1],[0],[0],[0.8680829906006693],[1],['target_find'],69.33813228763938,70.35466930934308,,,,,,,,,,,,,,,,,,,,,,,,,,,,,,,,618802,001,2023-11-06_13h59.42.654,Selektive Wahrnehmung,2023.2.3,59.93319024622397,2023-11-06 14h00.51.927290 +0100,
schlange2,0,3,3,3,,,,,70.61362169536187,,,,,,,,,,70.35514006463018,70.61362169536187,72.62308771664175,73.36048932380982,3.0060066099158576,75.00999082098133,"[-300, 0]",[-0.23981481481481481],[-0.024074074074074074],[1],[0],[0],[1.6487821375812928],[1],['target_find'],75.01051647401619,76.02670362925164,,,,,,,,,,,,,,,,,,,,,,,,,,,,,,,,618802,001,2023-11-06_13h59.42.654,Selektive Wahrnehmung,2023.2.3,59.93319024622397,2023-11-06 14h00.51.927290 +0100,
schiff1,0,4,4,14,,,,,76.27819418840409,,,,,,,,,,76.02698067798337,76.27819418840409,78.27890302355627,79.0313548621616,3.0048199083685176,79.84840229068504,"[300, 0]",[0.2675925925925926],[-0.040740740740740744],[1],[0],[0],[0.8164620421903237],[1],['target_find'],79.84892310816758,80.86517141892364,,,,,,,,,,,,,,,,,,,,,,,,,,,,,,,,618802,001,2023-11-06_13h59.42.654,Selektive Wahrnehmung,2023.2.3,59.93319024622397,2023-11-06 14h00.51.927290 +0100,
person2,0,5,5,5,,,,,80.93911868352188,,,,,,,,,,80.86564473421095,80.93911868352188,82.9501761705651,83.86968213635737,3.0046614729035355,84.75413404209212,"[-300, -300]",[-0.31666666666666665],[-0.31574074074074077],[1],[0],[0],[0.8837055239364418],[1],['target_find'],84.75488611277433,85.770155935199,,,,,,,,,,,,,,,,,,,,,,,,,,,,,,,,618802,001,2023-11-06_13h59.42.654,Selektive Wahrnehmung,2023.2.3,59.93319024622397,2023-11-06 14h00.51.927290 +0100,
zug1,0,6,6,15,,,,,85.89490437978748,,,,,,,,,,85.77063294826075,85.89490437978748,87.90480929859586,88.77492265248839,3.004931126084557,89.6758379088551,"[0, 300]",[0.002777777777777778],[0.22870370370370371],[1],[0],[0],[0.9001478256923292],[1],['target_find'],89.67664317062008,90.69207825517151,,,,,,,,,,,,,,,,,,,,,,,,,,,,,,,,618802,001,2023-11-06_13h59.42.654,Selektive Wahrnehmung,2023.2.3,59.93319024622397,2023-11-06 14h00.51.927290 +0100,
gesicht4,0,7,7,11,,,,,90.76653609725872,,,,,,,,,,90.69270061926363,90.76653609725872,92.77632610057844,93.69527882224065,3.0033564425339137,94.46437036693533,"[-300, 0]",[-0.24444444444444444],[-0.032407407407407406],[1],[0],[0],[0.7681597052251163],[1],['target_find'],94.46539408190802,95.47967176267412,,,,,,,,,,,,,,,,,,,,,,,,,,,,,,,,618802,001,2023-11-06_13h59.42.654,Selektive Wahrnehmung,2023.2.3,59.93319024622397,2023-11-06 14h00.51.927290 +0100,
gesicht2,0,8,8,9,,,,,95.52093637920007,,,,,,,,,,95.48011748686622,95.52093637920007,97.5311735289306,98.48288484529076,3.003393420291104,99.21881160885277,"[300, -300]",[0.2657407407407407],[-0.24351851851851852],[1],[0],[0],[0.7347810219907842],[1],['target_find'],99.2198191105017,100.23484146640112,,,,,,,,,,,,,,,,,,,,,,,,,,,,,,,,618802,001,2023-11-06_13h59.42.654,Selektive Wahrnehmung,2023.2.3,59.93319024622397,2023-11-06 14h00.51.927290 +0100,
schlange1,0,9,9,2,,,,,100.26663152831497,,,,,,,,,,100.23546183938015,100.26663152831497,102.26932066456357,103.2400578900997,3.0053381658526632,103.83922128257473,"[300, 0]",[0.262037037037037],[-0.03796296296296296],[1],[0],[0],[0.5984172951229993],[1],['target_find'],103.84005641098884,104.85665515710207,,,,,,,,,,,,,,,,,,,,,,,,,,,,,,,,618802,001,2023-11-06_13h59.42.654,Selektive Wahrnehmung,2023.2.3,59.93319024622397,2023-11-06 14h00.51.927290 +0100,
gesicht1,0,10,10,8,,,,,104.89799259136271,,,,,,,,,,104.85741889000019,104.89799259136271,106.9071411728255,107.85795023192077,3.00135879033769,108.56044569005644,"[0, 300]",[0.013888888888888888],[0.2638888888888889],[1],[0],[0],[0.7018819118184183],[1],['target_find'],108.56112579633555,109.57772624911559,,,,,,,,,,,,,,,,,,,,,,,,,,,,,,,,618802,001,2023-11-06_13h59.42.654,Selektive Wahrnehmung,2023.2.3,59.93319024622397,2023-11-06 14h00.51.927290 +0100,
auto1,0,11,11,12,,,,,109.62371349406385,,,,,,,,,,109.57843366204543,109.62371349406385,111.62862499349285,112.58019664771018,3.00262257628674,113.51524749354758,"[-300, -300]",[-0.275],[-0.28425925925925927],[1],[0],[0],[0.9343451395725424],[1],['target_find'],113.51589830206649,114.53196712847966,,,,,,,,,,,,,,,,,,,,,,,,,,,,,,,,618802,001,2023-11-06_13h59.42.654,Selektive Wahrnehmung,2023.2.3,59.93319024622397,2023-11-06 14h00.51.927290 +0100,
gruppe1,0,12,12,6,,,,,114.56888572081152,,,,,,,,,,114.53241143044943,114.56888572081152,116.58353858358532,117.53827667155747,3.0064349830063293,118.48786262023714,"[300, 300]",[0.2916666666666667],[0.2212962962962963],[1],[0],[0],[0.9490036912338837],[1],['target_find'],118.48834304663069,119.50377557118372,,,,,,,,,,,,,,,,,,,,,,,,,,,,,,,,618802,001,2023-11-06_13h59.42.654,Selektive Wahrnehmung,2023.2.3,59.93319024622397,2023-11-06 14h00.51.927290 +0100,
spinne1,0,13,13,0,,,,,119.63093610328906,,,,,,,,,,119.50425685091068,119.63093610328906,121.63867213444428,122.50873059058722,3.005134503746376,123.708533356923,"[-300, -300]",[-0.21388888888888888],[-0.287962962962963],[1],[0],[0],[1.1991260733866511],[1],['target_find'],123.70905218329426,124.72637910677076,,,,,,,,,,,,,,,,,,,,,,,,,,,,,,,,618802,001,2023-11-06_13h59.42.654,Selektive Wahrnehmung,2023.2.3,59.93319024622397,2023-11-06 14h00.51.927290 +0100,
spinne2,0,14,14,1,,,,,125.27932400109421,,,,,,,,,,124.72720086630216,125.27932400109421,127.29410258824282,127.72862849215744,3.002370274207351,128.63107519654295,"[300, -300]",[0.262037037037037],[-0.32222222222222224],[1],[0],[0],[0.9015868293190579],[1],['target_find'],128.6321077292887,129.64760283158466,,,,,,,,,,,,,,,,,,,,,,,,,,,,,,,,618802,001,2023-11-06_13h59.42.654,Selektive Wahrnehmung,2023.2.3,59.93319024622397,2023-11-06 14h00.51.927290 +0100,
gruppe2,0,15,15,7,,,,,129.75159281687047,,,,,,,,,,129.64825506232592,129.75159281687047,131.76537300458767,132.652897477461,3.005412405809693,133.48580665696318,"[0, -300]",[0.018518518518518517],[-0.34629629629629627],[1],[0],[0],[0.8321491443784907],[1],['target_find'],133.48660253206435,134.5025988251873,,,,,,,,,,,,,,,,,,,,,,,,,,,,,,,,618802,001,2023-11-06_13h59.42.654,Selektive Wahrnehmung,2023.2.3,59.93319024622397,2023-11-06 14h00.51.927290 +0100,
gesicht3,1,0,16,10,,,,,134.54704267546003,,,,,,,,,,134.50329599812358,134.54704267546003,136.5534662806931,137.50771825338597,3.0052323525796965,138.27393491971634,"[300, -300]",[0.2601851851851852],[-0.2814814814814815],[1],[0],[0],[0.7656486310970649],[1],['target_find'],138.27441307055597,139.29068470574202,,,,,,,,,,,,,,,,,,,,,,,,,,,,,,,,618802,001,2023-11-06_13h59.42.654,Selektive Wahrnehmung,2023.2.3,59.93319024622397,2023-11-06 14h00.51.927290 +0100,
gruppe1,1,1,17,6,,,,,139.3270150672979,,,,,,,,,,139.29139240311815,139.3270150672979,141.34154960125124,142.29257199355743,3.0019510033343977,143.11165945647735,"[-300, 300]",[-0.2388888888888889],[0.29814814814814816],[1],[0],[0],[0.8184870010391023],[1],['target_find'],143.11233330498362,144.12857706463,,,,,,,,,,,,,,,,,,,,,,,,,,,,,,,,618802,001,2023-11-06_13h59.42.654,Selektive Wahrnehmung,2023.2.3,59.93319024622397,2023-11-06 14h00.51.927290 +0100,
gruppe2,1,2,18,7,,,,,144.1800361642454,,,,,,,,,,144.12914339319832,144.1800361642454,146.17974147996756,147.13229873362434,3.0038991622259346,147.7500041955518,"[0, -300]",[0.014814814814814815],[-0.2361111111111111],[1],[0],[0],[0.6168774446196039],[1],['target_find'],147.75083818618805,148.76698836366813,,,,,,,,,,,,,,,,,,,,,,,,,,,,,,,,618802,001,2023-11-06_13h59.42.654,Selektive Wahrnehmung,2023.2.3,59.93319024622397,2023-11-06 14h00.51.927290 +0100,
gesicht4,1,3,19,11,,,,,148.81074954766154,,,,,,,,,,148.767694069933,148.81074954766154,150.8176953925995,151.76988400646587,3.003061189368964,152.52178828982687,"[-300, 300]",[-0.28703703703703703],[0.34074074074074073],[1],[0],[0],[0.7511462393467809],[1],['target_find'],152.5224800583219,153.53829004043837,,,,,,,,,,,,,,,,,,,,,,,,,,,,,,,,618802,001,2023-11-06_13h59.42.654,Selektive Wahrnehmung,2023.2.3,59.93319024622397,2023-11-06 14h00.51.927290 +0100,
spinne2,1,4,20,1,,,,,153.72712207523546,,,,,,,,,,153.5389934711493,153.72712207523546,155.73900473514368,156.54649796465856,3.008357826356587,157.57633417879515,"[300, 300]",[0.2361111111111111],[0.21574074074074073],[1],[0],[0],[1.029091539005094],[1],['target_find'],157.57711071168706,158.59314426700985,,,,,,,,,,,,,,,,,,,,,,,,,,,,,,,,618802,001,2023-11-06_13h59.42.654,Selektive Wahrnehmung,2023.2.3,59.93319024622397,2023-11-06 14h00.51.927290 +0100,
schlange1,1,5,21,2,,,,,158.6402977335183,,,,,,,,,,158.5937552533287,158.6402977335183,160.64411070912683,161.59513992809661,3.0021455632231664,162.61484395244406,"[300, 300]",[0.325],[0.23796296296296296],[1],[0],[0],[1.0189886469761404],[1],['target_find'],162.6154518098756,163.63119096536684,,,,,,,,,,,,,,,,,,,,,,,,,,,,,,,,618802,001,2023-11-06_13h59.42.654,Selektive Wahrnehmung,2023.2.3,59.93319024622397,2023-11-06 14h00.51.927290 +0100,
auto1,1,6,22,12,,,,,163.67519307366638,,,,,,,,,,163.63174705393794,163.67519307366638,165.68244014509946,166.6336841195025,3.0026675184817577,167.43595210754575,"[300, -300]",[0.3101851851851852],[-0.3194444444444444],[1],[0],[0],[0.8015281484640582],[1],['target_find'],167.43665297825828,168.4526822669177,,,,,,,,,,,,,,,,,,,,,,,,,,,,,,,,618802,001,2023-11-06_13h59.42.654,Selektive Wahrnehmung,2023.2.3,59.93319024622397,2023-11-06 14h00.51.927290 +0100,
schlange2,1,7,23,3,,,,,168.48608996346775,,,,,,,,,,168.45303270227305,168.48608996346775,170.48764530480548,171.45473993685846,3.002148407666027,172.64110555528168,"[-300, 0]",[-0.1925925925925926],[-0.06481481481481481],[1],[0],[0],[1.1857637343200622],[1],['target_find'],172.64178338600686,173.65785733241864,,,,,,,,,,,,,,,,,,,,,,,,,,,,,,,,618802,001,2023-11-06_13h59.42.654,Selektive Wahrnehmung,2023.2.3,59.93319024622397,2023-11-06 14h00.51.927290 +0100,
schiff1,1,8,24,14,,,,,173.69889866018093,,,,,,,,,,173.65834913658182,173.69889866018093,175.70933890313063,176.66305327612827,3.0053176858637016,177.56256138663048,"[0, -300]",[-0.025],[-0.2861111111111111],[1],[0],[0],[0.8988408042150695],[1],['target_find'],177.56314364407808,178.57957627472933,,,,,,,,,,,,,,,,,,,,,,,,,,,,,,,,618802,001,2023-11-06_13h59.42.654,Selektive Wahrnehmung,2023.2.3,59.93319024622397,2023-11-06 14h00.51.927290 +0100,
gesicht2,1,9,25,9,,,,,178.6260911638219,,,,,,,,,,178.5801536966228,178.6260911638219,180.6308049744748,181.5824539975365,3.0030381493834284,182.25153294134907,"[0, 300]",[0.049074074074074076],[0.2759259259259259],[1],[0],[0],[0.6681803843239322],[1],['target_find'],182.25249663857903,183.26794366979084,,,,,,,,,,,,,,,,,,,,,,,,,,,,,,,,618802,001,2023-11-06_13h59.42.654,Selektive Wahrnehmung,2023.2.3,59.93319024622397,2023-11-06 14h00.51.927290 +0100,
flugzeug1,1,10,26,13,,,,,183.31481269201686,,,,,,,,,,183.26866331382553,183.31481269201686,185.31885862749368,186.2712218901488,3.00345628247851,187.3566225882314,"[0, 300]",[0.049074074074074076],[0.2759259259259259],[1],[0],[0],[1.0846196140828397],[1],['target_find'],187.35739769890097,188.3725213169655,,,,,,,,,,,,,,,,,,,,,,,,,,,,,,,,618802,001,2023-11-06_13h59.42.654,Selektive Wahrnehmung,2023.2.3,59.93319024622397,2023-11-06 14h00.51.927290 +0100,
zug1,1,11,27,15,,,,,188.41399955114684,,,,,,,,,,188.37304952999693,188.41399955114684,190.42399065657264,191.3754724263963,3.003119216004052,192.46086942670445,"[0, -300]",[0.058333333333333334],[-0.23148148148148148],[1],[0],[0],[1.08464464518147],[1],['target_find'],192.46147870635832,193.47802795916505,,,,,,,,,,,,,,,,,,,,,,,,,,,,,,,,618802,001,2023-11-06_13h59.42.654,Selektive Wahrnehmung,2023.2.3,59.93319024622397,2023-11-06 14h00.51.927290 +0100,
person1,1,12,28,4,,,,,193.52230341842187,,,,,,,,,,193.47868303434916,193.52230341842187,195.52893296131697,196.48040335336918,3.002503109686586,197.51551743117125,"[-300, -300]",[-0.1962962962962963],[-0.25462962962962965],[1],[0],[0],[1.0344166204195062],[1],['target_find'],197.51596258647442,198.5334337232016,,,,,,,,,,,,,,,,,,,,,,,,,,,,,,,,618802,001,2023-11-06_13h59.42.654,Selektive Wahrnehmung,2023.2.3,59.93319024622397,2023-11-06 14h00.51.927290 +0100,
person2,1,13,29,5,,,,,198.58068759854177,,,,,,,,,,198.53418294944095,198.58068759854177,200.5842098720932,201.53475525133763,3.0013852436568413,202.3875402595313,"[300, 0]",[0.2462962962962963],[-0.08333333333333333],[1],[0],[0],[0.8521495596669411],[1],['target_find'],202.38830541465177,203.40467745867136,,,,,,,,,,,,,,,,,,,,,,,,,,,,,,,,618802,001,2023-11-06_13h59.42.654,Selektive Wahrnehmung,2023.2.3,59.93319024622397,2023-11-06 14h00.51.927290 +0100,
spinne1,1,14,30,0,,,,,203.44772241196188,,,,,,,,,,203.40538430271408,203.44772241196188,205.45533271874228,206.4078620968594,3.0033575803117856,207.65953697590703,"[-300, 300]",[-0.24444444444444444],[0.20092592592592592],[1],[0],[0],[1.250917403922358],[1],['target_find'],207.6602483710576,208.67674955278198,,,,,,,,,,,,,,,,,,,,,,,,,,,,,,,,618802,001,2023-11-06_13h59.42.654,Selektive Wahrnehmung,2023.2.3,59.93319024622397,2023-11-06 14h00.51.927290 +0100,
gesicht1,1,15,31,8,,,,,208.720968976515,,,,,,,,,,208.67747346348006,208.720968976515,210.727360439545,211.67827701858005,3.0016503457281942,212.4154095414542,"[300, 0]",[0.25555555555555554],[-0.0787037037037037],[1],[0],[0],[0.7362513144889817],[1],['target_find'],212.41644520308728,213.43038951515518,,,,,,,,,,,,,,,,,,,,,,,,,,,,,,,,618802,001,2023-11-06_13h59.42.654,Selektive Wahrnehmung,2023.2.3,59.93319024622397,2023-11-06 14h00.51.927290 +0100,
person1,2,0,32,4,,,,,213.45977260955078,,,,,,,,,,213.43068647498694,213.45977260955078,215.46550501517777,216.43538065898247,3.005192530379645,217.03632609488886,"[0, -300]",[-0.05277777777777778],[-0.3398148148148148],[1],[0],[0],[0.6001845474511356],[1],['target_find'],217.03702497449194,218.05236875242917,,,,,,,,,,,,,,,,,,,,,,,,,,,,,,,,618802,001,2023-11-06_13h59.42.654,Selektive Wahrnehmung,2023.2.3,59.93319024622397,2023-11-06 14h00.51.927290 +0100,
gesicht1,2,1,33,8,,,,,218.1006608494008,,,,,,,,,,218.05294532099106,218.1006608494008,220.10353117665727,221.0576451938723,3.0053947702635924,221.75700778267856,"[-300, 300]",[-0.2638888888888889],[0.19907407407407407],[1],[0],[0],[0.6987774869176064],[1],['target_find'],221.7575519245911,222.7736281465568,,,,,,,,,,,,,,,,,,,,,,,,,,,,,,,,618802,001,2023-11-06_13h59.42.654,Selektive Wahrnehmung,2023.2.3,59.93319024622397,2023-11-06 14h00.51.927290 +0100,
flugzeug1,2,2,34,13,,,,,222.81614517125854,,,,,,,,,,222.77419475956776,222.81614517125854,224.82467281085155,225.7785069348938,3.0050272682510695,226.66218401440165,"[300, 0]",[0.27314814814814814],[-0.05555555555555555],[1],[0],[0],[0.8830111954430322],[1],['target_find'],226.66282998736642,227.6785990095068,,,,,,,,,,,,,,,,,,,,,,,,,,,,,,,,618802,001,2023-11-06_13h59.42.654,Selektive Wahrnehmung,2023.2.3,59.93319024622397,2023-11-06 14h00.51.927290 +0100,
gesicht4,2,3,35,11,,,,,227.71634362803525,,,,,,,,,,227.6792188135987,227.71634362803525,229.72996139806492,230.68142098123462,3.0029900782992627,231.33306633496613,"[0, 300]",[0.1037037037037037],[0.2712962962962963],[1],[0],[0],[0.6509934074347257],[1],['target_find'],231.33356553468184,232.3500030008854,,,,,,,,,,,,,,,,,,,,,,,,,,,,,,,,618802,001,2023-11-06_13h59.42.654,Selektive Wahrnehmung,2023.2.3,59.93319024622397,2023-11-06 14h00.51.927290 +0100,
gruppe2,2,4,36,7,,,,,232.3869389443189,,,,,,,,,,232.35058895610928,232.3869389443189,234.40108464293735,235.35326557680855,3.0034289758277737,236.07144586157665,"[0, 300]",[-0.003703703703703704],[0.2898148148148148],[1],[0],[0],[0.7174009074333298],[1],['target_find'],236.07226107889073,237.08838963860399,,,,,,,,,,,,,,,,,,,,,,,,,,,,,,,,618802,001,2023-11-06_13h59.42.654,Selektive Wahrnehmung,2023.2.3,59.93319024622397,2023-11-06 14h00.51.927290 +0100,
gesicht2,2,5,37,9,,,,,237.132242982545,,,,,,,,,,237.08912151374352,237.132242982545,239.13893823207036,240.0941462219962,3.005880885542865,240.79222653597753,"[0, -300]",[-0.03981481481481482],[-0.2175925925925926],[1],[0],[0],[0.6974471410085243],[1],['target_find'],240.79274991345665,241.8098763037142,,,,,,,,,,,,,,,,,,,,,,,,,,,,,,,,618802,001,2023-11-06_13h59.42.654,Selektive Wahrnehmung,2023.2.3,59.93319024622397,2023-11-06 14h00.51.927290 +0100,
schlange1,2,6,38,2,,,,,241.85310614578702,,,,,,,,,,241.81062723662035,241.85310614578702,243.8606976792471,244.81212910243266,3.0024075364090095,245.7318003303535,"[300, -300]",[0.3148148148148148],[-0.32314814814814813],[1],[0],[0],[0.918823868401887],[1],['target_find'],245.7327771120199,246.7475221347413,,,,,,,,,,,,,,,,,,,,,,,,,,,,,,,,618802,001,2023-11-06_13h59.42.654,Selektive Wahrnehmung,2023.2.3,59.93319024622397,2023-11-06 14h00.51.927290 +0100,
auto1,2,7,39,12,,,,,246.79215627823942,,,,,,,,,,246.7480105255745,246.79215627823942,248.79886006109155,249.7511135282548,3.0037805489610037,250.86902051895595,"[300, 300]",[0.3148148148148148],[0.22407407407407406],[1],[0],[0],[1.1171978711045085],[1],['target_find'],250.86959424307497,251.8865582156468,,,,,,,,,,,,,,,,,,,,,,,,,,,,,,,,618802,001,2023-11-06_13h59.42.654,Selektive Wahrnehmung,2023.2.3,59.93319024622397,2023-11-06 14h00.51.927290 +0100,
gruppe1,2,8,40,6,,,,,251.9306453727877,,,,,,,,,,251.88726477524324,251.9306453727877,253.9374708977939,254.8915055550533,3.0050591260114743,255.44128259340323,"[300, 300]",[0.26944444444444443],[0.2175925925925926],[1],[0],[0],[0.5490335009944829],[1],['target_find'],255.44207078850923,256.45810093050204,,,,,,,,,,,,,,,,,,,,,,,,,,,,,,,,618802,001,2023-11-06_13h59.42.654,Selektive Wahrnehmung,2023.2.3,59.93319024622397,2023-11-06 14h00.51.927290 +0100,
zug1,2,9,41,15,,,,,256.5033722291919,,,,,,,,,,256.4589298011415,256.5033722291919,258.5085186795968,259.4594002719841,3.001419376971171,260.5322791638573,"[-300, -300]",[-0.2953703703703704],[-0.3314814814814815],[1],[0],[0],[1.0715701637291204],[1],['target_find'],260.53417782944416,261.5456153340492,,,,,,,,,,,,,,,,,,,,,,,,,,,,,,,,618802,001,2023-11-06_13h59.42.654,Selektive Wahrnehmung,2023.2.3,59.93319024622397,2023-11-06 14h00.51.927290 +0100,
schlange2,2,10,42,3,,,,,261.58559511575004,,,,,,,,,,261.5460835293379,261.58559511575004,263.5967951093771,264.54787296832,3.0023938830818224,265.50028487094824,"[300, 300]",[0.3509259259259259],[0.2611111111111111],[1],[0],[0],[0.951765929661633],[1],['target_find'],265.5008605861767,266.5178456076246,,,,,,,,,,,,,,,,,,,,,,,,,,,,,,,,618802,001,2023-11-06_13h59.42.654,Selektive Wahrnehmung,2023.2.3,59.93319024622397,2023-11-06 14h00.51.927290 +0100,
spinne2,2,11,43,1,,,,,266.7045167192082,,,,,,,,,,266.518560416107,266.7045167192082,268.7186174756298,269.5219538363981,3.004271784237062,271.33966060677085,"[-300, 300]",[-0.18981481481481483],[0.2490740740740741],[1],[0],[0],[1.816984566337851],[1],['target_find'],271.34031226862135,272.35660210824244,,,,,,,,,,,,,,,,,,,,,,,,,,,,,,,,618802,001,2023-11-06_13h59.42.654,Selektive Wahrnehmung,2023.2.3,59.93319024622397,2023-11-06 14h00.51.927290 +0100,
person2,2,12,44,5,,,,,272.39801804912713,,,,,,,,,,272.35717014347574,272.39801804912713,274.40786920796745,275.3603118305764,3.0038877844544913,276.1109998301854,"[300, -300]",[0.35555555555555557],[-0.3314814814814815],[1],[0],[0],[0.7499236978219415],[1],['target_find'],276.11161252317106,277.12785315393194,,,,,,,,,,,,,,,,,,,,,,,,,,,,,,,,618802,001,2023-11-06_13h59.42.654,Selektive Wahrnehmung,2023.2.3,59.93319024622397,2023-11-06 14h00.51.927290 +0100,
gesicht3,2,13,45,10,,,,,277.1683918686467,,,,,,,,,,277.12834638031745,277.1683918686467,279.1792579246885,280.13086371221834,3.003174967083396,280.71583248165916,"[300, -300]",[0.30277777777777776],[-0.2916666666666667],[1],[0],[0],[0.5842448587391118],[1],['target_find'],280.7165561079146,281.7329890230103,,,,,,,,,,,,,,,,,,,,,,,,,,,,,,,,618802,001,2023-11-06_13h59.42.654,Selektive Wahrnehmung,2023.2.3,59.93319024622397,2023-11-06 14h00.51.927290 +0100,
spinne1,2,14,46,0,,,,,281.77756144209707,,,,,,,,,,281.7336970048291,281.77756144209707,283.783837136305,284.73684039859654,3.0040322821514565,285.4868593852516,"[300, 0]",[0.2953703703703704],[-0.08611111111111111],[1],[0],[0],[0.7492962137348513],[1],['target_find'],285.48742429159756,286.50442723303604,,,,,,,,,,,,,,,,,,,,,,,,,,,,,,,,618802,001,2023-11-06_13h59.42.654,Selektive Wahrnehmung,2023.2.3,59.93319024622397,2023-11-06 14h00.51.927290 +0100,
schiff1,2,15,47,14,,,,,286.54142575421065,,,,,,,,,,286.50513436152323,286.54142575421065,288.5551609997292,289.50685724054165,3.0025867363056022,290.2916390163118,"[300, -300]",[0.2611111111111111],[-0.2574074074074074],[1],[0],[0],[0.7840991094908532],[1],['target_find'],290.29219738043867,291.30861550443115,,,,,,,,,,,,,,,,,,,,,,,,,,,,,,,,618802,001,2023-11-06_13h59.42.654,Selektive Wahrnehmung,2023.2.3,59.93319024622397,2023-11-06 14h00.51.927290 +0100,
schlange1,3,0,48,2,,,,,291.34953537448564,,,,,,,,,,291.30913575302475,291.34953537448564,293.3602668883814,294.3141138124138,3.005753454504884,295.1148531968829,"[300, -300]",[0.2611111111111111],[-0.2537037037037037],[1],[0],[0],[0.799789625008998],[1],['target_find'],295.1157898719048,296.13085717000104,,,,,,,,,,,,,,,,,,,,,,,,,,,,,,,,618802,001,2023-11-06_13h59.42.654,Selektive Wahrnehmung,2023.2.3,59.93319024622397,2023-11-06 14h00.51.927290 +0100,
schlange2,3,1,49,3,,,,,296.1741117587262,,,,,,,,,,296.1316265917849,296.1741117587262,298.18156107004506,299.13233542693706,3.0015761057693453,299.9181468910083,"[0, 300]",[0.049074074074074076],[0.27314814814814814],[1],[0],[0],[0.7851945044221793],[1],['target_find'],299.9187783573161,300.93533870345163,,,,,,,,,,,,,,,,,,,,,,,,,,,,,,,,618802,001,2023-11-06_13h59.42.654,Selektive Wahrnehmung,2023.2.3,59.93319024622397,2023-11-06 14h00.51.927290 +0100,
gesicht2,3,2,50,9,,,,,300.9783304656594,,,,,,,,,,300.9360392897197,300.9783304656594,302.98648491435415,303.9404171716724,3.0052130103686068,304.80683331877844,"[300, -300]",[0.23148148148148148],[-0.22870370370370371],[1],[0],[0],[0.8655562720396119],[1],['target_find'],304.80777397602105,305.8227892208124,,,,,,,,,,,,,,,,,,,,,,,,,,,,,,,,618802,001,2023-11-06_13h59.42.654,Selektive Wahrnehmung,2023.2.3,59.93319024622397,2023-11-06 14h00.51.927290 +0100,
auto1,3,3,51,12,,,,,305.8523574884366,,,,,,,,,,305.8230329895632,305.8523574884366,307.8581007029461,308.82750502257477,3.004919179424178,310.22845796780894,"[300, -300]",[0.19722222222222222],[-0.3037037037037037],[1],[0],[0],[1.4002347234236368],[1],['target_find'],310.2290720830151,311.24542962037776,,,,,,,,,,,,,,,,,,,,,,,,,,,,,,,,618802,001,2023-11-06_13h59.42.654,Selektive Wahrnehmung,2023.2.3,59.93319024622397,2023-11-06 14h00.51.927290 +0100,
gruppe2,3,4,52,7,,,,,311.28859688470766,,,,,,,,,,311.2460835577822,311.28859688470766,313.29644214246764,314.2474332459042,3.002139305448509,315.05046894906627,"[-300, -300]",[-0.15648148148148147],[-0.2722222222222222],[1],[0],[0],[0.8022853391448734],[1],['target_find'],315.0513111885866,316.0668489575255,,,,,,,,,,,,,,,,,,,,,,,,,,,,,,,,618802,001,2023-11-06_13h59.42.654,Selektive Wahrnehmung,2023.2.3,59.93319024622397,2023-11-06 14h00.51.927290 +0100,
spinne2,3,5,53,1,,,,,316.2432971415892,,,,,,,,,,316.0674360505236,316.2432971415892,318.25139242587284,319.0688412052805,3.0020551099423756,320.30505255534626,"[-300, 0]",[-0.25833333333333336],[-0.04259259259259259],[1],[0],[0],[1.2356199904024834],[1],['target_find'],320.3056979594239,321.32195167462305,,,,,,,,,,,,,,,,,,,,,,,,,,,,,,,,618802,001,2023-11-06_13h59.42.654,Selektive Wahrnehmung,2023.2.3,59.93319024622397,2023-11-06 14h00.51.927290 +0100,
gesicht1,3,6,54,8,,,,,321.3706161091595,,,,,,,,,,321.3224781809895,321.3706161091595,323.37334023205403,324.32488173517777,3.0030950382388255,324.84374878222116,"[-300, 0]",[-0.24537037037037038],[-0.041666666666666664],[1],[0],[0],[0.5177685232247313],[1],['target_find'],324.8445327106656,325.8604638660472,,,,,,,,,,,,,,,,,,,,,,,,,,,,,,,,618802,001,2023-11-06_13h59.42.654,Selektive Wahrnehmung,2023.2.3,59.93319024622397,2023-11-06 14h00.51.927290 +0100,
gesicht4,3,7,55,11,,,,,325.9033253527741,,,,,,,,,,325.86116871897866,325.9033253527741,327.9111882460784,328.86272434476086,3.0023793764230504,329.69798388736854,"[0, 300]",[0.05462962962962963],[0.2564814814814815],[1],[0],[0],[0.8345930896539357],[1],['target_find'],329.6986602958732,330.71520670423706,,,,,,,,,,,,,,,,,,,,,,,,,,,,,,,,618802,001,2023-11-06_13h59.42.654,Selektive Wahrnehmung,2023.2.3,59.93319024622397,2023-11-06 14h00.51.927290 +0100,
spinne1,3,8,56,0,,,,,330.75314673598587,,,,,,,,,,330.7159451215939,330.75314673598587,332.76598199979526,333.7167654589066,3.0016204790790653,334.5195522733211,"[-300, 300]",[-0.23703703703703705],[0.22685185185185186],[1],[0],[0],[0.8023277213433175],[1],['target_find'],334.5200321308257,335.5366854902404,,,,,,,,,,,,,,,,,,,,,,,,,,,,,,,,618802,001,2023-11-06_13h59.42.654,Selektive Wahrnehmung,2023.2.3,59.93319024622397,2023-11-06 14h00.51.927290 +0100,
zug1,3,9,57,15,,,,,335.58199291335404,,,,,,,,,,335.5373991609449,335.58199291335404,337.58750487466386,338.5390887599842,3.002559145210398,339.9585851968932,"[300, 0]",[0.28425925925925927],[-0.028703703703703703],[1],[0],[0],[1.4188004017487401],[1],['target_find'],339.9591702987818,340.9756706271728,,,,,,,,,,,,,,,,,,,,,,,,,,,,,,,,618802,001,2023-11-06_13h59.42.654,Selektive Wahrnehmung,2023.2.3,59.93319024622397,2023-11-06 14h00.51.927290 +0100,
schiff1,3,10,58,14,,,,,341.01751010559383,,,,,,,,,,340.9764053467552,341.01751010559383,343.0264621360566,343.9792947317783,3.003744993426153,345.21301918548124,"[-300, 300]",[-0.35462962962962963],[0.2814814814814815],[1],[0],[0],[1.2330668185222748],[1],['target_find'],345.21352748741447,346.23069284653866,,,,,,,,,,,,,,,,,,,,,,,,,,,,,,,,618802,001,2023-11-06_13h59.42.654,Selektive Wahrnehmung,2023.2.3,59.93319024622397,2023-11-06 14h00.51.927290 +0100,
flugzeug1,3,11,59,13,,,,,346.2698608242554,,,,,,,,,,346.2314022505798,346.2698608242554,348.28160410646524,349.23559410597227,3.005035232690716,350.2523797319791,"[-300, -300]",[-0.21388888888888888],[-0.32037037037037036],[1],[0],[0],[1.0161003997309308],[1],['target_find'],350.25289685168536,351.26865990049555,,,,,,,,,,,,,,,,,,,,,,,,,,,,,,,,618802,001,2023-11-06_13h59.42.654,Selektive Wahrnehmung,2023.2.3,59.93319024622397,2023-11-06 14h00.51.927290 +0100,
person2,3,12,60,5,,,,,351.31656003324497,,,,,,,,,,351.26923533127774,351.31656003324497,353.31994691131877,354.2721378007391,3.0036636423610616,355.17297227492963,"[300, 300]",[0.2935185185185185],[0.19722222222222222],[1],[0],[0],[0.9000886612830072],[1],['target_find'],355.17357871014065,356.1906246026665,,,,,,,,,,,,,,,,,,,,,,,,,,,,,,,,618802,001,2023-11-06_13h59.42.654,Selektive Wahrnehmung,2023.2.3,59.93319024622397,2023-11-06 14h00.51.927290 +0100,
person1,3,13,61,4,,,,,356.23401544020453,,,,,,,,,,356.19132604226616,356.23401544020453,358.2416194892103,359.1945121026765,3.0040783621243463,359.84480435495425,"[-300, 0]",[-0.26296296296296295],[0.027777777777777776],[1],[0],[0],[0.6494508660907741],[1],['target_find'],359.845531110097,360.8614773410245,,,,,,,,,,,,,,,,,,,,,,,,,,,,,,,,618802,001,2023-11-06_13h59.42.654,Selektive Wahrnehmung,2023.2.3,59.93319024622397,2023-11-06 14h00.51.927290 +0100,
gesicht3,3,14,62,10,,,,,360.8993732839117,,,,,,,,,,360.86206102069264,360.8993732839117,362.912915391762,363.8655770364712,3.0042794642322406,364.56611608683124,"[-300, 0]",[-0.23425925925925925],[0.026851851851851852],[1],[0],[0],[0.6997721885727515],[1],['target_find'],364.5669165130421,365.58287099285553,,,,,,,,,,,,,,,,,,,,,,,,,,,,,,,,618802,001,2023-11-06_13h59.42.654,Selektive Wahrnehmung,2023.2.3,59.93319024622397,2023-11-06 14h00.51.927290 +0100,
gruppe1,3,15,63,6,,,,,365.623801956237,,,,,,,,,,365.5834290725379,365.623801956237,367.63430961248014,368.58583860005456,3.00313286932942,369.8052728574439,"[300, -300]",[0.30277777777777776],[-0.37777777777777777],[1],[0],[0],[1.2186682489355007],[1],['target_find'],369.8059794170422,370.821448066019,,,,,,,,,,,,,,,,,,,,,,,,,,,,,,,,618802,001,2023-11-06_13h59.42.654,Selektive Wahrnehmung,2023.2.3,59.93319024622397,2023-11-06 14h00.51.927290 +0100,
auto1,4,0,64,12,,,,,370.8637460686241,,,,,,,,,,370.8220368656839,370.8637460686241,372.8725735124899,373.8277485068793,3.0064193385696854,374.5756879213859,"[0, 300]",[0.049074074074074076],[0.26666666666666666],[1],[0],[0],[0.7473267215209489],[1],['target_find'],374.5761908188779,375.59294572490035,,,,,,,,,,,,,,,,,,,,,,,,,,,,,,,,618802,001,2023-11-06_13h59.42.654,Selektive Wahrnehmung,2023.2.3,59.93319024622397,2023-11-06 14h00.51.927290 +0100,
gruppe2,4,1,65,7,,,,,375.6345704478881,,,,,,,,,,375.59352940456847,375.6345704478881,377.64417015798244,378.59557711896014,3.0027852784151037,379.58083351845744,"[0, -300]",[0.046296296296296294],[-0.33240740740740743],[1],[0],[0],[0.9845384621294215],[1],['target_find'],379.58135803371624,380.59825573076887,,,,,,,,,,,,,,,,,,,,,,,,,,,,,,,,618802,001,2023-11-06_13h59.42.654,Selektive Wahrnehmung,2023.2.3,59.93319024622397,2023-11-06 14h00.51.927290 +0100,
zug1,4,2,66,15,,,,,380.6448112953949,,,,,,,,,,380.59894522370996,380.6448112953949,382.64928332840645,383.6041770074007,3.006043587673048,384.5691294895605,"[-300, -300]",[-0.24351851851851852],[-0.2675925925925926],[1],[0],[0],[0.9642749358790752],[1],['target_find'],384.56976323142226,385.58665893736725,,,,,,,,,,,,,,,,,,,,,,,,,,,,,,,,618802,001,2023-11-06_13h59.42.654,Selektive Wahrnehmung,2023.2.3,59.93319024622397,2023-11-06 14h00.51.927290 +0100,
schlange2,4,3,67,3,,,,,385.6295258285354,,,,,,,,,,385.5873728925162,385.6295258285354,387.6375059128841,388.589002473811,3.0024979896898003,390.0581193624912,"[300, -300]",[0.37777777777777777],[-0.30648148148148147],[1],[0],[0],[1.4684143113026948],[1],['target_find'],390.0589957353259,391.07493769959,,,,,,,,,,,,,,,,,,,,,,,,,,,,,,,,618802,001,2023-11-06_13h59.42.654,Selektive Wahrnehmung,2023.2.3,59.93319024622397,2023-11-06 14h00.51.927290 +0100,
gruppe1,4,4,68,6,,,,,391.1214434864669,,,,,,,,,,391.0754354770852,391.1214434864669,393.126290132599,394.0779559378734,3.0031798026357137,394.81275146652297,"[-300, 0]",[-0.23055555555555557],[-0.09259259259259259],[1],[0],[0],[0.7340844179416308],[1],['target_find'],394.8133365684116,395.829744736855,,,,,,,,,,,,,,,,,,,,,,,,,,,,,,,,618802,001,2023-11-06_13h59.42.654,Selektive Wahrnehmung,2023.2.3,59.93319024622397,2023-11-06 14h00.51.927290 +0100,
spinne1,4,5,69,0,,,,,395.8722307571297,,,,,,,,,,395.8302405232407,395.8722307571297,397.8809725832689,398.8326483440924,3.003071713807003,399.5854085203009,"[0, -300]",[-0.05185185185185185],[-0.2537037037037037],[1],[0],[0],[0.7519091189133178],[1],['target_find'],399.5864291063863,400.6013172045823,,,,,,,,,,,,,,,,,,,,,,,,,,,,,,,,618802,001,2023-11-06_13h59.42.654,Selektive Wahrnehmung,2023.2.3,59.93319024622397,2023-11-06 14h00.51.927290 +0100,
gesicht4,4,6,70,11,,,,,400.64611262798826,,,,,,,,,,400.6018769909315,400.64611262798826,402.65265598426595,403.60604381522717,3.00490552609881,404.23863822868407,"[-300, 0]",[-0.25092592592592594],[0.037037037037037035],[1],[0],[0],[0.6318744849777431],[1],['target_find'],404.2392418194522,405.25625528532873,,,,,,,,,,,,,,,,,,,,,,,,,,,,,,,,618802,001,2023-11-06_13h59.42.654,Selektive Wahrnehmung,2023.2.3,59.93319024622397,2023-11-06 14h00.51.927290 +0100,
person2,4,7,71,5,,,,,405.3005742645619,,,,,,,,,,405.25696212937146,405.3005742645619,407.3072311141077,408.2617063755624,3.0055830723795225,408.8940809135893,"[300, 0]",[0.325],[-0.016666666666666666],[1],[0],[0],[0.6317422183874442],[1],['target_find'],408.89460315329234,409.9105078553548,,,,,,,,,,,,,,,,,,,,,,,,,,,,,,,,618802,001,2023-11-06_13h59.42.654,Selektive Wahrnehmung,2023.2.3,59.93319024622397,2023-11-06 14h00.51.927290 +0100,
person1,4,8,72,4,,,,,409.95293357344053,,,,,,,,,,409.91108044169596,409.95293357344053,411.9617604484192,412.9132939871033,3.0029451361024257,413.61557184536287,"[300, -300]",[0.2574074074074074],[-0.2675925925925926],[1],[0],[0],[0.7016344452931662],[1],['target_find'],413.61607445841037,414.6321444226014,,,,,,,,,,,,,,,,,,,,,,,,,,,,,,,,618802,001,2023-11-06_13h59.42.654,Selektive Wahrnehmung,2023.2.3,59.93319024622397,2023-11-06 14h00.51.927290 +0100,
gesicht3,4,9,73,10,,,,,414.67399300323814,,,,,,,,,,414.63271786227597,414.67399300323814,416.6830716114073,417.634529487912,3.0025389496659045,418.2702627440267,"[300, -300]",[0.3907407407407407],[-0.31666666666666665],[1],[0],[0],[0.6350025187548454],[1],['target_find'],418.270934885868,419.28657221030517,,,,,,,,,,,,,,,,,,,,,,,,,,,,,,,,618802,001,2023-11-06_13h59.42.654,Selektive Wahrnehmung,2023.2.3,59.93319024622397,2023-11-06 14h00.51.927290 +0100,
schiff1,4,10,74,14,,,,,419.3290388883688,,,,,,,,,,419.2871112322209,419.3290388883688,421.33798323883457,422.2912732209643,3.0048913038826868,422.99153806703544,"[0, -300]",[0.0],[-0.2462962962962963],[1],[0],[0],[0.6995235842696275],[1],['target_find'],422.9921826177797,424.0081240131549,,,,,,,,,,,,,,,,,,,,,,,,,,,,,,,,618802,001,2023-11-06_13h59.42.654,Selektive Wahrnehmung,2023.2.3,59.93319024622397,2023-11-06 14h00.51.927290 +0100,
gesicht1,4,11,75,8,,,,,424.05103101096756,,,,,,,,,,424.00874438613573,424.05103101096756,426.05908817971795,427.0102030164162,3.0022161054057506,427.6464255166993,"[300, -300]",[0.22870370370370371],[-0.2824074074074074],[1],[0],[0],[0.6354542162753205],[1],['target_find'],427.64724869845304,428.66271507187594,,,,,,,,,,,,,,,,,,,,,,,,,,,,,,,,618802,001,2023-11-06_13h59.42.654,Selektive Wahrnehmung,2023.2.3,59.93319024622397,2023-11-06 14h00.51.927290 +0100,
flugzeug1,4,12,76,13,,,,,428.7068076334599,,,,,,,,,,428.66333060930447,428.7068076334599,430.71386156722474,431.6652813281944,3.00272355400557,432.81917564064497,"[-300, -300]",[-0.2759259259259259],[-0.25555555555555554],[1],[0],[0],[1.1529963218508783],[1],['target_find'],432.82012824454796,433.83455611189675,,,,,,,,,,,,,,,,,,,,,,,,,,,,,,,,618802,001,2023-11-06_13h59.42.654,Selektive Wahrnehmung,2023.2.3,59.93319024622397,2023-11-06 14h00.51.927290 +0100,
schlange1,4,13,77,2,,,,,433.8864435846008,,,,,,,,,,433.83513467156627,433.8864435846008,435.88556692732163,436.8373624391879,3.002970167199237,437.63878107660275,"[-300, 300]",[-0.2064814814814815],[0.3],[1],[0],[0],[0.800710655596049],[1],['target_find'],437.63935679183123,438.6562994310825,,,,,,,,,,,,,,,,,,,,,,,,,,,,,,,,618802,001,2023-11-06_13h59.42.654,Selektive Wahrnehmung,2023.2.3,59.93319024622397,2023-11-06 14h00.51.927290 +0100,
spinne2,4,14,78,1,,,,,438.8435909156451,,,,,,,,,,438.65700456845843,438.8435909156451,440.8573750855812,441.66219055661895,3.006028512127159,442.5109899315248,"[300, -300]",[0.2611111111111111],[-0.2740740740740741],[1],[0],[0],[0.8480006553581916],[1],['target_find'],442.5118628910277,443.5274748999236,,,,,,,,,,,,,,,,,,,,,,,,,,,,,,,,618802,001,2023-11-06_13h59.42.654,Selektive Wahrnehmung,2023.2.3,59.93319024622397,2023-11-06 14h00.51.927290 +0100,
gesicht2,4,15,79,9,,,,,443.5707883686173,,,,,,,,,,443.5280483395982,443.5707883686173,445.5785201331073,446.53027525388643,3.0029596427611978,447.1823723051384,"[300, 0]",[0.2537037037037037],[-0.03611111111111111],[1],[0],[0],[0.6511851228806336],[1],['target_find'],447.1833391312557,448.19935476658793,,,,,,,,,,,,,,,,,,,,,,,,,,,,,,,,618802,001,2023-11-06_13h59.42.654,Selektive Wahrnehmung,2023.2.3,59.93319024622397,2023-11-06 14h00.51.927290 +0100,
,,,,,0,0,0,0,454.26670121716415,,,,,,,,,,,,,,,,,,,,,,,,,,,448.2245104500562,451.08517996931914,451.0851984581968,454.2211244253158,454.2217903093806,462.82255682983305,4.0,1.0,gesicht4,,,,,,,,,,,,,,,,,,,,,,,618802,001,2023-11-06_13h59.42.654,Selektive Wahrnehmung,2023.2.3,59.93319024622397,2023-11-06 14h00.51.927290 +0100,
,,,,,1,0,1,0,462.8562208106832,,,,,,,,,,,,,,,,,,,,,,,,,,,,,,,462.82289105186464,469.97010689700437,1.0,4.0,gesicht2,,,,,,,,,,,,,,,,,,,,,,,618802,001,2023-11-06_13h59.42.654,Selektive Wahrnehmung,2023.2.3,59.93319024622397,2023-11-06 14h00.51.927290 +0100,
,,,,,2,0,2,0,470.0043778819527,,,,,,,,,,,,,,,,,,,,,,,,,,,,,,,469.97064904780746,475.5129167570958,3.0,3.0,person1,,,,,,,,,,,,,,,,,,,,,,,618802,001,2023-11-06_13h59.42.654,Selektive Wahrnehmung,2023.2.3,59.93319024622397,2023-11-06 14h00.51.927290 +0100,
,,,,,3,0,3,0,475.5458753161238,,,,,,,,,,,,,,,,,,,,,,,,,,,,,,,475.5132353346926,482.27984965412907,2.0,4.0,spinne2,,,,,,,,,,,,,,,,,,,,,,,618802,001,2023-11-06_13h59.42.654,Selektive Wahrnehmung,2023.2.3,59.93319024622397,2023-11-06 14h00.51.927290 +0100,
,,,,,4,0,4,0,482.3905735733624,,,,,,,,,,,,,,,,,,,,,,,,,,,,,,,482.2808389513448,486.755582432379,4.0,1.0,person2,,,,,,,,,,,,,,,,,,,,,,,618802,001,2023-11-06_13h59.42.654,Selektive Wahrnehmung,2023.2.3,59.93319024622397,2023-11-06 14h00.51.927290 +0100,
,,,,,,,,,,,,,,,,,,,,,,,,,,,,,,,,,,,,,,,,,,,,,486.76165531781226,497.63335615524556, 19,1.0,497.63337976412004,510.1773939613031,2.0,1.0,510.1774141568476,513.9814616283238,513.981490926084,528.6774273835072,2.0,4.0,5.0,2.0,528.677451845715,541.3448727638042,3.0,5.0,541.3448915371282,541.9766354621806,,,,,,,,
