Target,trials.thisRepN,trials.thisTrialN,trials.thisN,trials.thisIndex,trials_2.thisRepN,trials_2.thisTrialN,trials_2.thisN,trials_2.thisIndex,thisRow.t,notes,Data_transparency.started,key_resp_data_transp.started,Data_transparency.stopped,key_resp_data_transp.keys,key_resp_data_transp.rt,key_resp_data_transp.duration,instructions.started,instructions.stopped,trial.started,target_show.started,target_show.stopped,target_find.started,mouse.started,trial.stopped,target_position_x_y,mouse.x,mouse.y,mouse.leftButton,mouse.midButton,mouse.rightButton,mouse.time,mouse.corr,mouse.clicked_name,feedback.started,feedback.stopped,instructions_survey.started,instructions_survey.stopped,instructions_ratings.started,instructions_ratings.stopped,survey_ratings.started,survey_ratings.stopped,furcht.response,liebenswert.response,rated_image,survey_gen.started,survey_gen.stopped,age.text,gender.response,survey_games.started,survey_games.stopped,pc_frequency.response,reaction_games_frequency.response,instructions_neuro.started,instructions_neuro.stopped,survey_neuro.started,survey_neuro.stopped,neuro_1_rev.response,neuro_2.response,neuro_3.response,neuro_4_rev.response,survey_fear.started,survey_fear.stopped,specific_fear_spider.response,specific_fear_snake.response,thanks.started,thanks.stopped,participant,session,date,expName,psychopyVersion,frameRate,expStart,
,,,,,,,,,,,0.024638100003357977,0.05701220000628382,46.3877313999983,z,46.2978433999815,None,,,,,,,,,,,,,,,,,,,,,,,,,,,,,,,,,,,,,,,,,,,,,,,,,,,625308,001,2023-11-13_12h53.38.995,Selektive Wahrnehmung,2023.2.3,60.05208917680316,2023-11-13 13h02.00.950362 +0100,
,,,,,,,,,,,,,,,,,46.387760699988576,75.20286059999489,,,,,,,,,,,,,,,,,,,,,,,,,,,,,,,,,,,,,,,,,,,,,,,,,625308,001,2023-11-13_12h53.38.995,Selektive Wahrnehmung,2023.2.3,60.05208917680316,2023-11-13 13h02.00.950362 +0100,
schlange2,0,0,0,3,,,,,75.25419489998603,,,,,,,,,,75.21103959999164,75.25419489998603,77.26850710000144,78.20086039998569,3.014607699995395,79.89940209998167,"[-300, -300]",[-0.32407407407407407],[-0.26296296296296295],[1],[0],[0],[1.6814771999779623],[1],['target_find'],79.90033689999836,80.90112599998247,,,,,,,,,,,,,,,,,,,,,,,,,,,,,,,,625308,001,2023-11-13_12h53.38.995,Selektive Wahrnehmung,2023.2.3,60.05208917680316,2023-11-13 13h02.00.950362 +0100,
auto1,0,1,1,12,,,,,80.93411010000273,,,,,,,,,,80.90135149998241,80.93411010000273,82.93394299998181,83.91730500000995,3.016261199984001,84.61986229999457,"[-300, 0]",[-0.2712962962962963],[0.14351851851851852],[1],[0],[0],[0.7020884000230581],[0],['dis3'],84.6203555999964,85.63554319998366,,,,,,,,,,,,,,,,,,,,,,,,,,,,,,,,625308,001,2023-11-13_12h53.38.995,Selektive Wahrnehmung,2023.2.3,60.05208917680316,2023-11-13 13h02.00.950362 +0100,
gesicht4,0,2,2,11,,,,,85.6702815000026,,,,,,,,,,85.63577150000492,85.6702815000026,87.68504809998558,88.65046579999034,3.0149992000078782,89.36910740000894,"[0, 300]",[0.01574074074074074],[0.3287037037037037],[1],[0],[0],[0.7180866000126116],[1],['target_find'],89.36960159998853,90.38395299998228,,,,,,,,,,,,,,,,,,,,,,,,,,,,,,,,625308,001,2023-11-13_12h53.38.995,Selektive Wahrnehmung,2023.2.3,60.05208917680316,2023-11-13 13h02.00.950362 +0100,
gesicht3,0,3,3,10,,,,,90.48361809999915,,,,,,,,,,90.3841707999818,90.48361809999915,92.48388519999571,93.41702580000856,3.033146300003864,93.98747570000705,"[-300, 0]",[-0.2935185185185185],[-0.01574074074074074],[1],[0],[0],[0.5695224000082817],[1],['target_find'],93.98886680000578,95.00273720000405,,,,,,,,,,,,,,,,,,,,,,,,,,,,,,,,625308,001,2023-11-13_12h53.38.995,Selektive Wahrnehmung,2023.2.3,60.05208917680316,2023-11-13 13h02.00.950362 +0100,
person1,0,4,4,4,,,,,95.13695690000895,,,,,,,,,,95.00358679998317,95.13695690000895,97.15154140000232,98.0668377999973,3.0641466999950353,98.7845912000048,"[300, -300]",[0.3638888888888889],[-0.49907407407407406],[1],[0],[0],[0.7172941000026185],[],[],98.7850982999953,99.80126449998352,,,,,,,,,,,,,,,,,,,,,,,,,,,,,,,,625308,001,2023-11-13_12h53.38.995,Selektive Wahrnehmung,2023.2.3,60.05208917680316,2023-11-13 13h02.00.950362 +0100,
zug1,0,5,5,15,,,,,99.91669809998712,,,,,,,,,,99.80183129999205,99.91669809998712,101.9170213000034,102.8667592999991,3.0655629000102635,104.08713749999879,"[-300, 0]",[-0.2777777777777778],[-0.03333333333333333],[1],[0],[0],[1.2195660000143107],[1],['target_find'],104.08828969998285,105.10124260000885,,,,,,,,,,,,,,,,,,,,,,,,,,,,,,,,625308,001,2023-11-13_12h53.38.995,Selektive Wahrnehmung,2023.2.3,60.05208917680316,2023-11-13 13h02.00.950362 +0100,
flugzeug1,0,6,6,13,,,,,105.14999440000975,,,,,,,,,,105.10197859999607,105.14999440000975,107.15009609999834,108.1500873999903,3.0489148999913596,109.43578249998973,"[300, -300]",[0.21388888888888888],[-0.2953703703703704],[1],[0],[0],[1.2849577000015415],[1],['target_find'],109.43672430000152,110.4512790000008,,,,,,,,,,,,,,,,,,,,,,,,,,,,,,,,625308,001,2023-11-13_12h53.38.995,Selektive Wahrnehmung,2023.2.3,60.05208917680316,2023-11-13 13h02.00.950362 +0100,
gruppe2,0,7,7,7,,,,,110.59988520000479,,,,,,,,,,110.4520174000063,110.59988520000479,112.60099579999223,113.48306949998369,3.0318596999859437,114.30279190000147,"[300, -300]",[0.36666666666666664],[-0.30833333333333335],[1],[0],[0],[0.8192453000228852],[1],['target_find'],114.30328739999095,115.31740430000355,,,,,,,,,,,,,,,,,,,,,,,,,,,,,,,,625308,001,2023-11-13_12h53.38.995,Selektive Wahrnehmung,2023.2.3,60.05208917680316,2023-11-13 13h02.00.950362 +0100,
spinne1,0,8,8,0,,,,,115.3497997999948,,,,,,,,,,115.31797450000886,115.3497997999948,117.34954239998478,118.36603060000925,3.04869840000174,118.92004559998168,"[300, 300]",[-0.000925925925925926],[-0.010185185185185186],[1],[0],[0],[0.5530598000041209],[0],['dis2'],118.92144999999437,119.9342856000003,,,,,,,,,,,,,,,,,,,,,,,,,,,,,,,,625308,001,2023-11-13_12h53.38.995,Selektive Wahrnehmung,2023.2.3,60.05208917680316,2023-11-13 13h02.00.950362 +0100,
schlange1,0,9,9,2,,,,,119.98600319999969,,,,,,,,,,119.93493359998683,119.98600319999969,122.00062330000219,122.94966849999037,3.015455699991435,123.71904809999978,"[0, 300]",[-0.06666666666666667],[0.2537037037037037],[1],[0],[0],[0.7685741999885067],[1],['target_find'],123.72040530000231,124.73387199998251,,,,,,,,,,,,,,,,,,,,,,,,,,,,,,,,625308,001,2023-11-13_12h53.38.995,Selektive Wahrnehmung,2023.2.3,60.05208917680316,2023-11-13 13h02.00.950362 +0100,
schiff1,0,10,10,14,,,,,124.84940700000152,,,,,,,,,,124.73450299998512,124.84940700000152,126.84923180000624,127.78271259999019,3.048915699997451,128.43570919998456,"[0, 300]",[0.016666666666666666],[0.16018518518518518],[1],[0],[0],[0.6520348000049125],[1],['target_find'],128.43713199999183,129.45038190000923,,,,,,,,,,,,,,,,,,,,,,,,,,,,,,,,625308,001,2023-11-13_12h53.38.995,Selektive Wahrnehmung,2023.2.3,60.05208917680316,2023-11-13 13h02.00.950362 +0100,
person2,0,11,11,5,,,,,129.55216220000875,,,,,,,,,,129.45096580000245,129.55216220000875,131.56675480000558,132.49914790000184,3.0488374999840744,133.2182080000057,"[0, -300]",[0.03425925925925926],[-0.2037037037037037],[1],[0],[0],[0.7183468999864999],[1],['target_find'],133.21919509998406,134.23321109998506,,,,,,,,,,,,,,,,,,,,,,,,,,,,,,,,625308,001,2023-11-13_12h53.38.995,Selektive Wahrnehmung,2023.2.3,60.05208917680316,2023-11-13 13h02.00.950362 +0100,
gesicht2,0,12,12,9,,,,,134.2658470000024,,,,,,,,,,134.23368119998486,134.2658470000024,136.26581109999097,137.26530629998888,3.032192300015595,138.1854684999853,"[0, 300]",[0.02962962962962963],[0.27685185185185185],[1],[0],[0],[0.9192452999996021],[1],['target_find'],138.18676350000896,139.20001179998508,,,,,,,,,,,,,,,,,,,,,,,,,,,,,,,,625308,001,2023-11-13_12h53.38.995,Selektive Wahrnehmung,2023.2.3,60.05208917680316,2023-11-13 13h02.00.950362 +0100,
gesicht1,0,13,13,8,,,,,139.23564880000777,,,,,,,,,,139.2005727000069,139.23564880000777,141.2496109000058,142.21575979999034,3.016020799987018,143.06836800000747,"[300, -300]",[0.26944444444444443],[-0.31666666666666665],[1],[0],[0],[0.851543099997798],[1],['target_find'],143.0695347999863,144.08308069998748,,,,,,,,,,,,,,,,,,,,,,,,,,,,,,,,625308,001,2023-11-13_12h53.38.995,Selektive Wahrnehmung,2023.2.3,60.05208917680316,2023-11-13 13h02.00.950362 +0100,
spinne2,0,14,14,1,,,,,144.28217900000163,,,,,,,,,,144.08366529998602,144.28217900000163,146.28207290000864,147.11528269998962,2.9990598000003956,147.71749969999655,"[300, -300]",[0.24814814814814815],[-0.2490740740740741],[1],[0],[0],[0.634520399995381],[1],['target_find'],147.71802289999323,148.7336753999989,,,,,,,,,,,,,,,,,,,,,,,,,,,,,,,,625308,001,2023-11-13_12h53.38.995,Selektive Wahrnehmung,2023.2.3,60.05208917680316,2023-11-13 13h02.00.950362 +0100,
gruppe1,0,15,15,6,,,,,148.79978269999265,,,,,,,,,,148.73415579998982,148.79978269999265,150.81616369998665,151.8018138000043,3.0682212999963667,153.0344858999888,"[-300, -300]",[-0.14351851851851852],[-0.28055555555555556],[1],[0],[0],[1.2319289000006393],[1],['target_find'],153.03538640000625,154.0492285999935,,,,,,,,,,,,,,,,,,,,,,,,,,,,,,,,625308,001,2023-11-13_12h53.38.995,Selektive Wahrnehmung,2023.2.3,60.05208917680316,2023-11-13 13h02.00.950362 +0100,
gesicht1,1,0,16,8,,,,,154.08170539999264,,,,,,,,,,154.04973530001007,154.08170539999264,156.08160370000405,157.09839739999734,2.999343700008467,157.9012240000011,"[0, -300]",[-0.003703703703703704],[-0.3138888888888889],[1],[0],[0],[0.8508268999867141],[1],['target_find'],157.9025343999965,158.9167582000082,,,,,,,,,,,,,,,,,,,,,,,,,,,,,,,,625308,001,2023-11-13_12h53.38.995,Selektive Wahrnehmung,2023.2.3,60.05208917680316,2023-11-13 13h02.00.950362 +0100,
person1,1,1,17,4,,,,,158.95154929999262,,,,,,,,,,158.91753929998958,158.95154929999262,160.96500709999236,161.93115359998774,3.0144516000000294,163.06714090000605,"[-300, 300]",[-0.3287037037037037],[0.2833333333333333],[1],[0],[0],[1.1351776999945287],[1],['target_find'],163.06817519999458,164.08240660000592,,,,,,,,,,,,,,,,,,,,,,,,,,,,,,,,625308,001,2023-11-13_12h53.38.995,Selektive Wahrnehmung,2023.2.3,60.05208917680316,2023-11-13 13h02.00.950362 +0100,
schlange1,1,2,18,2,,,,,164.13128050000523,,,,,,,,,,164.08304679999128,164.13128050000523,166.13134359999094,167.1146349000046,3.0323098999797367,169.06717629998457,"[300, 0]",[0.24722222222222223],[-0.0787037037037037],[1],[0],[0],[1.9517635999945924],[1],['target_find'],169.0681493000011,170.08322309999494,,,,,,,,,,,,,,,,,,,,,,,,,,,,,,,,625308,001,2023-11-13_12h53.38.995,Selektive Wahrnehmung,2023.2.3,60.05208917680316,2023-11-13 13h02.00.950362 +0100,
gesicht4,1,3,19,11,,,,,170.1157406999846,,,,,,,,,,170.08376670000143,170.1157406999846,172.1158027999918,173.11453249998158,3.0316130999999586,173.7342110000027,"[300, -300]",[0.22685185185185186],[-0.2222222222222222],[1],[0],[0],[0.6188755999901332],[1],['target_find'],173.73472519998904,174.7488861999882,,,,,,,,,,,,,,,,,,,,,,,,,,,,,,,,625308,001,2023-11-13_12h53.38.995,Selektive Wahrnehmung,2023.2.3,60.05208917680316,2023-11-13 13h02.00.950362 +0100,
person2,1,4,20,5,,,,,174.79735320000327,,,,,,,,,,174.74961639998946,174.79735320000327,176.79727209999692,177.7808882999816,3.032090699998662,178.35120020000613,"[-300, 0]",[-0.34074074074074073],[0.018518518518518517],[1],[0],[0],[0.5693503999791574],[1],['target_find'],178.35259490000317,179.36527119998937,,,,,,,,,,,,,,,,,,,,,,,,,,,,,,,,625308,001,2023-11-13_12h53.38.995,Selektive Wahrnehmung,2023.2.3,60.05208917680316,2023-11-13 13h02.00.950362 +0100,
flugzeug1,1,5,21,13,,,,,179.4174098999938,,,,,,,,,,179.36585319999722,179.4174098999938,181.4309319999884,182.39752559998306,3.032331599999452,183.29985280000255,"[-300, -300]",[-0.24814814814814815],[-0.18888888888888888],[1],[0],[0],[0.9016187000088394],[1],['target_find'],183.3007815000019,184.3148557000095,,,,,,,,,,,,,,,,,,,,,,,,,,,,,,,,625308,001,2023-11-13_12h53.38.995,Selektive Wahrnehmung,2023.2.3,60.05208917680316,2023-11-13 13h02.00.950362 +0100,
zug1,1,6,22,15,,,,,184.3472638000094,,,,,,,,,,184.31534820000525,184.3472638000094,186.34732909998274,187.3305437999952,3.0157755999825895,188.11746010000934,"[-300, 300]",[-0.2722222222222222],[0.2324074074074074],[1],[0],[0],[0.7861155999999028],[1],['target_find'],188.1186083999928,189.13185249999515,,,,,,,,,,,,,,,,,,,,,,,,,,,,,,,,625308,001,2023-11-13_12h53.38.995,Selektive Wahrnehmung,2023.2.3,60.05208917680316,2023-11-13 13h02.00.950362 +0100,
schlange2,1,7,23,3,,,,,189.16695340001024,,,,,,,,,,189.13258889998542,189.16695340001024,191.18159309998737,192.1468637000071,3.0150739999953657,193.30060379998758,"[0, -300]",[-0.10555555555555556],[-0.25555555555555554],[1],[0],[0],[1.1528436999942642],[1],['target_find'],193.30200589998276,194.31452640000498,,,,,,,,,,,,,,,,,,,,,,,,,,,,,,,,625308,001,2023-11-13_12h53.38.995,Selektive Wahrnehmung,2023.2.3,60.05208917680316,2023-11-13 13h02.00.950362 +0100,
auto1,1,8,24,12,,,,,194.36368999999831,,,,,,,,,,194.31500740000047,194.36368999999831,196.36356910000904,197.34658169999602,3.032130000006873,198.1346530999872,"[0, -300]",[0.028703703703703703],[-0.33611111111111114],[1],[0],[0],[0.7869337000011001],[1],['target_find'],198.13661049999064,199.14866909998818,,,,,,,,,,,,,,,,,,,,,,,,,,,,,,,,625308,001,2023-11-13_12h53.38.995,Selektive Wahrnehmung,2023.2.3,60.05208917680316,2023-11-13 13h02.00.950362 +0100,
gesicht2,1,9,25,9,,,,,199.20004140000674,,,,,,,,,,199.14925009998842,199.20004140000674,201.21455589999096,202.18023229998653,3.0318606999935582,202.7496056999953,"[0, -300]",[-0.023148148148148147],[-0.19907407407407407],[1],[0],[0],[0.5682345999812242],[1],['target_find'],202.75088139998843,203.76449349999893,,,,,,,,,,,,,,,,,,,,,,,,,,,,,,,,625308,001,2023-11-13_12h53.38.995,Selektive Wahrnehmung,2023.2.3,60.05208917680316,2023-11-13 13h02.00.950362 +0100,
schiff1,1,10,26,14,,,,,203.81317290000152,,,,,,,,,,203.76522979998845,203.81317290000152,205.81332270000712,206.79623839998385,3.031800100026885,208.53343640000094,"[-300, 300]",[-0.3768518518518518],[0.28425925925925927],[1],[0],[0],[1.7364276000007521],[1],['target_find'],208.5345176999981,209.54813829998602,,,,,,,,,,,,,,,,,,,,,,,,,,,,,,,,625308,001,2023-11-13_12h53.38.995,Selektive Wahrnehmung,2023.2.3,60.05208917680316,2023-11-13 13h02.00.950362 +0100,
gesicht3,1,11,27,10,,,,,209.5831038999895,,,,,,,,,,209.5486192999815,209.5831038999895,211.59762489999412,212.56274490000214,3.0146701999765355,213.34912389999954,"[-300, 300]",[-0.24537037037037038],[0.24537037037037038],[1],[0],[0],[0.7854831999866292],[1],['target_find'],213.35042470000917,214.36401960000512,,,,,,,,,,,,,,,,,,,,,,,,,,,,,,,,625308,001,2023-11-13_12h53.38.995,Selektive Wahrnehmung,2023.2.3,60.05208917680316,2023-11-13 13h02.00.950362 +0100,
spinne2,1,12,28,1,,,,,214.54629669999122,,,,,,,,,,214.36464849999174,214.54629669999122,216.54620650000288,217.41294099998777,3.0491965000110213,217.9851747000066,"[-300, 0]",[-0.26296296296296295],[0.08333333333333333],[1],[0],[0],[0.5709893000021111],[1],['target_find'],217.98655800000415,218.9971527000016,,,,,,,,,,,,,,,,,,,,,,,,,,,,,,,,625308,001,2023-11-13_12h53.38.995,Selektive Wahrnehmung,2023.2.3,60.05208917680316,2023-11-13 13h02.00.950362 +0100,
spinne1,1,13,29,0,,,,,219.0640737999929,,,,,,,,,,218.99773179998738,219.0640737999929,221.08068620000267,222.06583690000116,3.068771399994148,223.06825479998952,"[0, 300]",[-0.23796296296296296],[0.016666666666666666],[1],[0],[0],[1.0014173999952618],[0],['dis1'],223.0698599999887,224.08166870000423,,,,,,,,,,,,,,,,,,,,,,,,,,,,,,,,625308,001,2023-11-13_12h53.38.995,Selektive Wahrnehmung,2023.2.3,60.05208917680316,2023-11-13 13h02.00.950362 +0100,
gruppe2,1,14,30,7,,,,,224.13229690000298,,,,,,,,,,224.0822935999895,224.13229690000298,226.14593520000926,227.11223020000034,3.0306205000088084,227.99815860000672,"[0, -300]",[-0.07314814814814814],[-0.3194444444444444],[1],[0],[0],[0.8851429000205826],[1],['target_find'],227.99944569999934,229.01376729999902,,,,,,,,,,,,,,,,,,,,,,,,,,,,,,,,625308,001,2023-11-13_12h53.38.995,Selektive Wahrnehmung,2023.2.3,60.05208917680316,2023-11-13 13h02.00.950362 +0100,
gruppe1,1,15,31,6,,,,,229.0622955999861,,,,,,,,,,229.01450439999462,229.0622955999861,231.06251689998317,232.04570620000595,3.0322217000066303,232.98082729999442,"[0, 300]",[-0.011111111111111112],[0.18055555555555555],[1],[0],[0],[0.9340396999905352],[1],['target_find'],232.98177759998362,233.99754929999472,,,,,,,,,,,,,,,,,,,,,,,,,,,,,,,,625308,001,2023-11-13_12h53.38.995,Selektive Wahrnehmung,2023.2.3,60.05208917680316,2023-11-13 13h02.00.950362 +0100,
schiff1,2,0,32,14,,,,,234.04854839999462,,,,,,,,,,233.9982888000086,234.04854839999462,236.06342039999436,237.01238609998836,3.0149086999881547,237.79836899999646,"[0, -300]",[-0.030555555555555555],[-0.24259259259259258],[1],[0],[0],[0.7850192000041716],[1],['target_find'],237.7997466000088,238.81209009999293,,,,,,,,,,,,,,,,,,,,,,,,,,,,,,,,625308,001,2023-11-13_12h53.38.995,Selektive Wahrnehmung,2023.2.3,60.05208917680316,2023-11-13 13h02.00.950362 +0100,
spinne2,2,1,33,1,,,,,238.99539419999928,,,,,,,,,,238.81238309998298,238.99539419999928,240.99538989999564,241.8286178999988,3.016618199995719,243.54818549999618,"[-300, 300]",[-0.3287037037037037],[0.30277777777777776],[1],[0],[0],[1.7186161999998149],[1],['target_find'],243.54957030000514,244.56278310000198,,,,,,,,,,,,,,,,,,,,,,,,,,,,,,,,625308,001,2023-11-13_12h53.38.995,Selektive Wahrnehmung,2023.2.3,60.05208917680316,2023-11-13 13h02.00.950362 +0100,
person2,2,2,34,5,,,,,244.61168579998775,,,,,,,,,,244.5632598999946,244.61168579998775,246.61160639999434,247.62865110000712,2.9991526000085287,248.2159369000001,"[-300, 300]",[-0.31574074074074077],[0.26851851851851855],[1],[0],[0],[0.6527508999861311],[1],['target_find'],248.21715839998797,249.2291944999888,,,,,,,,,,,,,,,,,,,,,,,,,,,,,,,,625308,001,2023-11-13_12h53.38.995,Selektive Wahrnehmung,2023.2.3,60.05208917680316,2023-11-13 13h02.00.950362 +0100,
schlange1,2,3,35,2,,,,,249.2616393000062,,,,,,,,,,249.22969519998878,249.2616393000062,251.26178440000513,252.24518060000264,3.0160756000259425,252.96455219999189,"[-300, 300]",[-0.2638888888888889],[0.2574074074074074],[1],[0],[0],[0.7184140000026673],[1],['target_find'],252.96583739999915,253.97928359999787,,,,,,,,,,,,,,,,,,,,,,,,,,,,,,,,625308,001,2023-11-13_12h53.38.995,Selektive Wahrnehmung,2023.2.3,60.05208917680316,2023-11-13 13h02.00.950362 +0100,
gesicht4,2,4,36,11,,,,,254.01167129998794,,,,,,,,,,253.9798738999816,254.01167129998794,256.0114310999925,257.0281859000097,2.9990473999932874,257.5810257999983,"[0, 300]",[0.007407407407407408],[0.28703703703703703],[1],[0],[0],[0.6013465000141878],[1],['target_find'],257.5826788999839,258.59607919998234,,,,,,,,,,,,,,,,,,,,,,,,,,,,,,,,625308,001,2023-11-13_12h53.38.995,Selektive Wahrnehmung,2023.2.3,60.05208917680316,2023-11-13 13h02.00.950362 +0100,
gruppe2,2,5,37,7,,,,,258.66272839999874,,,,,,,,,,258.59697310000774,258.66272839999874,260.6790282999864,261.62807839998277,3.032067099993583,262.86276729998644,"[-300, -300]",[-0.3101851851851852],[-0.22962962962962963],[1],[0],[0],[1.2341405000188388],[1],['target_find'],262.86329409998143,263.8787778999831,,,,,,,,,,,,,,,,,,,,,,,,,,,,,,,,625308,001,2023-11-13_12h53.38.995,Selektive Wahrnehmung,2023.2.3,60.05208917680316,2023-11-13 13h02.00.950362 +0100,
zug1,2,6,38,15,,,,,263.91126269998495,,,,,,,,,,263.87936099999934,263.91126269998495,265.9111290999863,266.9112128999841,3.032713299995521,267.7134897999931,"[-300, -300]",[-0.23981481481481481],[-0.2212962962962963],[1],[0],[0],[0.8012643000110984],[1],['target_find'],267.71442010000465,268.73011469998164,,,,,,,,,,,,,,,,,,,,,,,,,,,,,,,,625308,001,2023-11-13_12h53.38.995,Selektive Wahrnehmung,2023.2.3,60.05208917680316,2023-11-13 13h02.00.950362 +0100,
gesicht1,2,7,39,8,,,,,268.76211909999256,,,,,,,,,,268.73073799998383,268.76211909999256,270.7621012000018,271.76095199998235,3.030909699999029,273.48091849999037,"[300, 0]",[0.2675925925925926],[-0.028703703703703703],[1],[0],[0],[1.719083000003593],[1],['target_find'],273.48211389998323,274.4953995999822,,,,,,,,,,,,,,,,,,,,,,,,,,,,,,,,625308,001,2023-11-13_12h53.38.995,Selektive Wahrnehmung,2023.2.3,60.05208917680316,2023-11-13 13h02.00.950362 +0100,
spinne1,2,8,40,0,,,,,274.5443314999866,,,,,,,,,,274.496135399997,274.5443314999866,276.5441764999996,277.5275061999855,3.0321886999881826,278.6457587000041,"[-300, -300]",[-0.25462962962962965],[-0.2111111111111111],[1],[0],[0],[1.1177058999892324],[1],['target_find'],278.64631680000457,279.6611309,,,,,,,,,,,,,,,,,,,,,,,,,,,,,,,,625308,001,2023-11-13_12h53.38.995,Selektive Wahrnehmung,2023.2.3,60.05208917680316,2023-11-13 13h02.00.950362 +0100,
gesicht2,2,9,41,9,,,,,279.6939646000101,,,,,,,,,,279.66141719999723,279.6939646000101,281.69387980000465,282.6771816999826,3.0161397000192665,283.6788271999976,"[300, 300]",[0.24814814814814815],[0.337037037037037],[1],[0],[0],[1.0010926999966614],[1],['target_find'],283.67942860000767,284.69519800000126,,,,,,,,,,,,,,,,,,,,,,,,,,,,,,,,625308,001,2023-11-13_12h53.38.995,Selektive Wahrnehmung,2023.2.3,60.05208917680316,2023-11-13 13h02.00.950362 +0100,
person1,2,10,42,4,,,,,284.73021219999646,,,,,,,,,,284.69564689998515,284.73021219999646,286.7438123000029,287.7103633999941,3.015245699993102,288.43231189998914,"[-300, 300]",[-0.2962962962962963],[0.25277777777777777],[1],[0],[0],[0.7210405000078026],[1],['target_find'],288.4337059999816,289.44498480000766,,,,,,,,,,,,,,,,,,,,,,,,,,,,,,,,625308,001,2023-11-13_12h53.38.995,Selektive Wahrnehmung,2023.2.3,60.05208917680316,2023-11-13 13h02.00.950362 +0100,
gesicht3,2,11,43,10,,,,,289.4937561999832,,,,,,,,,,289.4457201999903,289.4937561999832,291.493607899989,292.4768541000085,3.0319492999988142,293.6459894999862,"[300, 300]",[0.17037037037037037],[0.3212962962962963],[1],[0],[0],[1.1683740000007674],[1],['target_find'],293.6464815000072,294.660615300003,,,,,,,,,,,,,,,,,,,,,,,,,,,,,,,,625308,001,2023-11-13_12h53.38.995,Selektive Wahrnehmung,2023.2.3,60.05208917680316,2023-11-13 13h02.00.950362 +0100,
auto1,2,12,44,12,,,,,294.6965438000043,,,,,,,,,,294.6608717000054,294.6965438000043,296.7114606999967,297.6766745999921,3.0161503000126686,298.82818379998207,"[0, 300]",[0.019444444444444445],[0.3],[1],[0],[0],[1.1509976999950595],[1],['target_find'],298.82869429999846,299.84429989999626,,,,,,,,,,,,,,,,,,,,,,,,,,,,,,,,625308,001,2023-11-13_12h53.38.995,Selektive Wahrnehmung,2023.2.3,60.05208917680316,2023-11-13 13h02.00.950362 +0100,
flugzeug1,2,13,45,13,,,,,299.87658280000323,,,,,,,,,,299.8449268999975,299.87658280000323,301.8764672999969,302.87661509998725,3.0325932999840006,303.8960467999859,"[0, -300]",[0.0],[-0.2324074074074074],[1],[0],[0],[1.0183579000004102],[1],['target_find'],303.89709429998766,304.91151519998675,,,,,,,,,,,,,,,,,,,,,,,,,,,,,,,,625308,001,2023-11-13_12h53.38.995,Selektive Wahrnehmung,2023.2.3,60.05208917680316,2023-11-13 13h02.00.950362 +0100,
schlange2,2,14,46,3,,,,,304.94632039999124,,,,,,,,,,304.9122480000078,304.94632039999124,306.9607954999956,307.9262914999854,3.014853699976811,308.92966950000846,"[-300, -300]",[-0.2722222222222222],[-0.24814814814814815],[1],[0],[0],[1.0023639000137337],[1],['target_find'],308.93138819999876,309.9439262000087,,,,,,,,,,,,,,,,,,,,,,,,,,,,,,,,625308,001,2023-11-13_12h53.38.995,Selektive Wahrnehmung,2023.2.3,60.05208917680316,2023-11-13 13h02.00.950362 +0100,
gruppe1,2,15,47,6,,,,,309.9929736999911,,,,,,,,,,309.94459569998435,309.9929736999911,311.99303129999316,312.9762750999944,2.999109900003532,313.5616078999883,"[0, 300]",[0.007407407407407408],[0.3314814814814815],[1],[0],[0],[0.6174511999997776],[1],['target_find'],313.56263390000095,314.576888999989,,,,,,,,,,,,,,,,,,,,,,,,,,,,,,,,625308,001,2023-11-13_12h53.38.995,Selektive Wahrnehmung,2023.2.3,60.05208917680316,2023-11-13 13h02.00.950362 +0100,
person1,3,0,48,4,,,,,314.6107706000039,,,,,,,,,,314.5773733999813,314.6107706000039,316.60952100000577,317.5925020999857,3.0156834999797866,318.21166179998545,"[300, 0]",[0.3314814814814815],[0.003703703703703704],[1],[0],[0],[0.6183651999745052],[1],['target_find'],318.21279709998635,319.2267809000041,,,,,,,,,,,,,,,,,,,,,,,,,,,,,,,,625308,001,2023-11-13_12h53.38.995,Selektive Wahrnehmung,2023.2.3,60.05208917680316,2023-11-13 13h02.00.950362 +0100,
gruppe2,3,1,49,7,,,,,319.2593321999884,,,,,,,,,,319.2273026999901,319.2593321999884,321.258943599998,322.2591397000069,2.9990690000122413,323.2952636999835,"[0, -300]",[0.09074074074074075],[-0.27037037037037037],[1],[0],[0],[1.0683811999915633],[1],['target_find'],323.29642359999707,324.3098706000019,,,,,,,,,,,,,,,,,,,,,,,,,,,,,,,,625308,001,2023-11-13_12h53.38.995,Selektive Wahrnehmung,2023.2.3,60.05208917680316,2023-11-13 13h02.00.950362 +0100,
person2,3,2,50,5,,,,,324.34360289998585,,,,,,,,,,324.3103538999858,324.34360289998585,326.3437050000066,327.3423424999928,3.0325485999928787,327.9782172999985,"[-300, 0]",[-0.18333333333333332],[0.01574074074074074],[1],[0],[0],[0.6351555000001099],[1],['target_find'],327.97910979998414,328.9928177999973,,,,,,,,,,,,,,,,,,,,,,,,,,,,,,,,625308,001,2023-11-13_12h53.38.995,Selektive Wahrnehmung,2023.2.3,60.05208917680316,2023-11-13 13h02.00.950362 +0100,
gesicht2,3,3,51,9,,,,,329.02564380000695,,,,,,,,,,328.9932076999976,329.02564380000695,331.02567229999113,332.00876060000155,3.0160273000074085,332.89449229999445,"[300, 300]",[0.27870370370370373],[0.20277777777777778],[1],[0],[0],[0.8849978999933228],[1],['target_find'],332.8953809000086,333.9100439999893,,,,,,,,,,,,,,,,,,,,,,,,,,,,,,,,625308,001,2023-11-13_12h53.38.995,Selektive Wahrnehmung,2023.2.3,60.05208917680316,2023-11-13 13h02.00.950362 +0100,
spinne2,3,4,52,1,,,,,334.1266909999831,,,,,,,,,,333.9107187000045,334.1266909999831,336.14331640000455,336.94215540000005,3.0323726999922656,337.61137739999685,"[300, 0]",[0.24351851851851852],[-0.08981481481481482],[1],[0],[0],[0.6681351999868639],[1],['target_find'],337.6125192999898,338.6261072999914,,,,,,,,,,,,,,,,,,,,,,,,,,,,,,,,625308,001,2023-11-13_12h53.38.995,Selektive Wahrnehmung,2023.2.3,60.05208917680316,2023-11-13 13h02.00.950362 +0100,
zug1,3,5,53,15,,,,,338.6749925999902,,,,,,,,,,338.62687229999574,338.6749925999902,340.6750968999986,341.6748335000011,2.9990741000219714,342.8266488999943,"[-300, -300]",[-0.3453703703703704],[-0.2675925925925926],[1],[0],[0],[1.2006067000038456],[1],['target_find'],342.8271114999952,343.84411669999827,,,,,,,,,,,,,,,,,,,,,,,,,,,,,,,,625308,001,2023-11-13_12h53.38.995,Selektive Wahrnehmung,2023.2.3,60.05208917680316,2023-11-13 13h02.00.950362 +0100,
gruppe1,3,6,54,6,,,,,343.91146269999444,,,,,,,,,,343.8449827999866,343.91146269999444,345.9263818000036,346.8746129999927,3.0305408000131138,347.545056700008,"[300, 300]",[0.21944444444444444],[0.23981481481481481],[1],[0],[0],[0.6694858999981079],[1],['target_find'],347.5463204999978,348.5589837000007,,,,,,,,,,,,,,,,,,,,,,,,,,,,,,,,625308,001,2023-11-13_12h53.38.995,Selektive Wahrnehmung,2023.2.3,60.05208917680316,2023-11-13 13h02.00.950362 +0100,
gesicht4,3,7,55,11,,,,,348.6080917000072,,,,,,,,,,348.559507900005,348.6080917000072,350.6081509999931,351.57474360000924,3.015856600017287,352.2103349000099,"[0, 300]",[0.020370370370370372],[0.325],[1],[0],[0],[0.6348833999945782],[1],['target_find'],352.2112192999921,353.22581440000795,,,,,,,,,,,,,,,,,,,,,,,,,,,,,,,,625308,001,2023-11-13_12h53.38.995,Selektive Wahrnehmung,2023.2.3,60.05208917680316,2023-11-13 13h02.00.950362 +0100,
spinne1,3,8,56,0,,,,,353.26136360000237,,,,,,,,,,353.22640019998653,353.26136360000237,355.2757095999841,356.258050000004,3.0323239999997895,357.27707559999544,"[-300, 300]",[-0.03333333333333333],[-0.18981481481481483],[1],[0],[0],[1.0181613000168],[0],['dis8'],357.27846050000517,358.29196400000365,,,,,,,,,,,,,,,,,,,,,,,,,,,,,,,,625308,001,2023-11-13_12h53.38.995,Selektive Wahrnehmung,2023.2.3,60.05208917680316,2023-11-13 13h02.00.950362 +0100,
schlange1,3,9,57,2,,,,,358.32450479999534,,,,,,,,,,358.292486499995,358.32450479999534,360.3244912000082,361.32455339998705,3.0326578999811318,362.7441010999901,"[0, 300]",[-0.021296296296296296],[0.3416666666666667],[1],[0],[0],[1.4187387000129092],[1],['target_find'],362.74523539998336,363.75853910000296,,,,,,,,,,,,,,,,,,,,,,,,,,,,,,,,625308,001,2023-11-13_12h53.38.995,Selektive Wahrnehmung,2023.2.3,60.05208917680316,2023-11-13 13h02.00.950362 +0100,
flugzeug1,3,10,58,13,,,,,363.80747749999864,,,,,,,,,,363.7592949999962,363.80747749999864,365.8076328999887,366.774159099994,3.0156908000062685,367.84363759998814,"[-300, -300]",[-0.28055555555555556],[-0.2175925925925926],[1],[0],[0],[1.0686359999817796],[1],['target_find'],367.8447768999904,368.85895779999555,,,,,,,,,,,,,,,,,,,,,,,,,,,,,,,,625308,001,2023-11-13_12h53.38.995,Selektive Wahrnehmung,2023.2.3,60.05208917680316,2023-11-13 13h02.00.950362 +0100,
schiff1,3,11,59,14,,,,,368.8938787000079,,,,,,,,,,368.8591584000096,368.8938787000079,370.90856260000146,371.87411989999237,3.0152587999764364,372.577584499988,"[0, -300]",[-0.03425925925925926],[-0.2518518518518518],[1],[0],[0],[0.7025294000050053],[1],['target_find'],372.579015299998,373.59189219999826,,,,,,,,,,,,,,,,,,,,,,,,,,,,,,,,625308,001,2023-11-13_12h53.38.995,Selektive Wahrnehmung,2023.2.3,60.05208917680316,2023-11-13 13h02.00.950362 +0100,
schlange2,3,12,60,3,,,,,373.6405248999945,,,,,,,,,,373.59265370000503,373.6405248999945,375.64063780001015,376.6240783999965,3.0324867000163067,377.9782188000099,"[-300, -300]",[-0.30648148148148147],[-0.1925925925925926],[1],[0],[0],[1.353021799994167],[1],['target_find'],377.9793403999938,378.9917329000018,,,,,,,,,,,,,,,,,,,,,,,,,,,,,,,,625308,001,2023-11-13_12h53.38.995,Selektive Wahrnehmung,2023.2.3,60.05208917680316,2023-11-13 13h02.00.950362 +0100,
auto1,3,13,61,12,,,,,379.06012839998584,,,,,,,,,,378.9924829000083,379.06012839998584,381.07502270000987,382.00691769999685,3.015263599983882,383.4426941999991,"[300, 300]",[0.20925925925925926],[0.24814814814814815],[1],[0],[0],[1.435045699996408],[1],['target_find'],383.4436744999839,384.4583696000045,,,,,,,,,,,,,,,,,,,,,,,,,,,,,,,,625308,001,2023-11-13_12h53.38.995,Selektive Wahrnehmung,2023.2.3,60.05208917680316,2023-11-13 13h02.00.950362 +0100,
gesicht3,3,14,62,10,,,,,384.50685689999955,,,,,,,,,,384.4592632999993,384.50685689999955,386.50682899999083,387.50696140000946,3.048656300001312,388.1606555999897,"[0, -300]",[-0.03796296296296296],[-0.2972222222222222],[1],[0],[0],[0.6527630999917164],[1],['target_find'],388.16190740000457,389.17486549998284,,,,,,,,,,,,,,,,,,,,,,,,,,,,,,,,625308,001,2023-11-13_12h53.38.995,Selektive Wahrnehmung,2023.2.3,60.05208917680316,2023-11-13 13h02.00.950362 +0100,
gesicht1,3,15,63,8,,,,,389.22635670000454,,,,,,,,,,389.17574720000266,389.22635670000454,391.2406487999833,392.1901056999923,3.0153105999925174,393.0260042999871,"[300, 300]",[0.33611111111111114],[0.3435185185185185],[1],[0],[0],[0.83506350000971],[1],['target_find'],393.0271317999868,394.04132160000154,,,,,,,,,,,,,,,,,,,,,,,,,,,,,,,,625308,001,2023-11-13_12h53.38.995,Selektive Wahrnehmung,2023.2.3,60.05208917680316,2023-11-13 13h02.00.950362 +0100,
gesicht2,4,0,64,9,,,,,394.0899872999871,,,,,,,,,,394.0421626000025,394.0899872999871,396.08993369998643,397.07338469999377,3.032351900008507,398.2926831000077,"[-300, 300]",[-0.22037037037037038],[0.2074074074074074],[1],[0],[0],[1.218190500017954],[1],['target_find'],398.2938298000081,399.3090480999963,,,,,,,,,,,,,,,,,,,,,,,,,,,,,,,,625308,001,2023-11-13_12h53.38.995,Selektive Wahrnehmung,2023.2.3,60.05208917680316,2023-11-13 13h02.00.950362 +0100,
gesicht4,4,1,65,11,,,,,399.35956579999765,,,,,,,,,,399.30990379999275,399.35956579999765,401.3742738000001,402.35631719999947,3.047338199976366,402.9592922999873,"[300, -300]",[0.20277777777777778],[-0.2490740740740741],[1],[0],[0],[0.6024580000084825],[1],['target_find'],402.9598112000094,403.9734758999839,,,,,,,,,,,,,,,,,,,,,,,,,,,,,,,,625308,001,2023-11-13_12h53.38.995,Selektive Wahrnehmung,2023.2.3,60.05208917680316,2023-11-13 13h02.00.950362 +0100,
gruppe1,4,2,66,6,,,,,404.02268599998206,,,,,,,,,,403.97409639999387,404.02268599998206,406.0228656999825,406.9896102999919,3.016208100016229,407.5243638000102,"[0, 300]",[-0.005555555555555556],[0.2212962962962963],[1],[0],[0],[0.5342320999770891],[1],['target_find'],407.5248755000066,408.54165070000454,,,,,,,,,,,,,,,,,,,,,,,,,,,,,,,,625308,001,2023-11-13_12h53.38.995,Selektive Wahrnehmung,2023.2.3,60.05208917680316,2023-11-13 13h02.00.950362 +0100,
spinne2,4,3,67,1,,,,,408.77290899999207,,,,,,,,,,408.54224829998566,408.77290899999207,410.7740482999943,411.58929740000167,2.9990032000059728,412.8574077000085,"[-300, -300]",[-0.3287037037037037],[-0.2111111111111111],[1],[0],[0],[1.3159419000148773],[1],['target_find'],412.8579153000028,413.87331809999887,,,,,,,,,,,,,,,,,,,,,,,,,,,,,,,,625308,001,2023-11-13_12h53.38.995,Selektive Wahrnehmung,2023.2.3,60.05208917680316,2023-11-13 13h02.00.950362 +0100,
gesicht3,4,4,68,10,,,,,413.9223731000093,,,,,,,,,,413.87381439999444,413.9223731000093,415.92248159999144,416.9223304000043,2.9990483000001404,417.592982400005,"[300, -300]",[0.2074074074074074],[-0.20277777777777778],[1],[0],[0],[0.719696100015426],[1],['target_find'],417.5941183999821,418.60718990000896,,,,,,,,,,,,,,,,,,,,,,,,,,,,,,,,625308,001,2023-11-13_12h53.38.995,Selektive Wahrnehmung,2023.2.3,60.05208917680316,2023-11-13 13h02.00.950362 +0100,
spinne1,4,5,69,0,,,,,418.6423501999816,,,,,,,,,,418.60767739999574,418.6423501999816,420.6558267000073,421.6225221999921,3.015597899997374,422.806903299992,"[-300, 0]",[-0.2675925925925926],[-0.07407407407407407],[1],[0],[0],[1.1835944000049494],[1],['target_find'],422.80750490000355,423.8232538999873,,,,,,,,,,,,,,,,,,,,,,,,,,,,,,,,625308,001,2023-11-13_12h53.38.995,Selektive Wahrnehmung,2023.2.3,60.05208917680316,2023-11-13 13h02.00.950362 +0100,
gruppe2,4,6,70,7,,,,,423.87209669998265,,,,,,,,,,423.82387739999103,423.87209669998265,425.8721869000001,426.8554801999999,3.03230849999818,428.22666849999223,"[-300, 300]",[-0.3212962962962963],[0.2972222222222222],[1],[0],[0],[1.3702972999890335],[1],['target_find'],428.22798769999645,429.23990929999854,,,,,,,,,,,,,,,,,,,,,,,,,,,,,,,,625308,001,2023-11-13_12h53.38.995,Selektive Wahrnehmung,2023.2.3,60.05208917680316,2023-11-13 13h02.00.950362 +0100,
person1,4,7,71,4,,,,,429.2751370999904,,,,,,,,,,429.24066609999863,429.2751370999904,431.29005119999056,432.2552383999864,3.015411900007166,432.8567061999929,"[300, -300]",[0.2212962962962963],[-0.25277777777777777],[1],[0],[0],[0.6009240999992471],[1],['target_find'],432.8572210999846,433.8727868999995,,,,,,,,,,,,,,,,,,,,,,,,,,,,,,,,625308,001,2023-11-13_12h53.38.995,Selektive Wahrnehmung,2023.2.3,60.05208917680316,2023-11-13 13h02.00.950362 +0100,
schlange1,4,8,72,2,,,,,433.90518339999835,,,,,,,,,,433.8733472999884,433.90518339999835,435.90519819999463,436.90511719998904,3.032437000016216,438.85667089998606,"[0, -300]",[-0.06296296296296296],[-0.27870370370370373],[1],[0],[0],[1.950972599996021],[1],['target_find'],438.8571410999866,439.8725717999914,,,,,,,,,,,,,,,,,,,,,,,,,,,,,,,,625308,001,2023-11-13_12h53.38.995,Selektive Wahrnehmung,2023.2.3,60.05208917680316,2023-11-13 13h02.00.950362 +0100,
auto1,4,9,73,12,,,,,439.9249895999965,,,,,,,,,,439.87301979999756,439.9249895999965,441.93972229998326,442.8882162999944,3.0157272999931592,443.72291589999804,"[-300, 0]",[-0.1675925925925926],[-0.04814814814814815],[1],[0],[0],[0.8341414000024088],[1],['target_find'],443.72347959998297,444.73860169999534,,,,,,,,,,,,,,,,,,,,,,,,,,,,,,,,625308,001,2023-11-13_12h53.38.995,Selektive Wahrnehmung,2023.2.3,60.05208917680316,2023-11-13 13h02.00.950362 +0100,
person2,4,10,74,5,,,,,444.77148299998953,,,,,,,,,,444.7388809999975,444.77148299998953,446.7715271000052,447.75486290000845,3.0163540999928955,448.4581409000093,"[300, 0]",[0.31296296296296294],[-0.09074074074074075],[1],[0],[0],[0.7023290999932215],[1],['target_find'],448.45952319999924,449.47282429999905,,,,,,,,,,,,,,,,,,,,,,,,,,,,,,,,625308,001,2023-11-13_12h53.38.995,Selektive Wahrnehmung,2023.2.3,60.05208917680316,2023-11-13 13h02.00.950362 +0100,
zug1,4,11,75,15,,,,,449.5411621000094,,,,,,,,,,449.4736828999885,449.5411621000094,451.55510189998313,452.488036499999,3.0152822000090964,453.3907971000008,"[-300, 300]",[-0.17592592592592593],[0.2],[1],[0],[0],[0.9018073000188451],[1],['target_find'],453.39210040000034,454.4052843999816,,,,,,,,,,,,,,,,,,,,,,,,,,,,,,,,625308,001,2023-11-13_12h53.38.995,Selektive Wahrnehmung,2023.2.3,60.05208917680316,2023-11-13 13h02.00.950362 +0100,
schiff1,4,12,76,14,,,,,454.4378444000031,,,,,,,,,,454.4060921999917,454.4378444000031,456.4377434999915,457.42100840000785,3.0158037000219338,458.8056626000034,"[300, 0]",[0.23333333333333334],[-0.040740740740740744],[1],[0],[0],[1.3840937999775633],[1],['target_find'],458.80639730000985,459.82223439999507,,,,,,,,,,,,,,,,,,,,,,,,,,,,,,,,625308,001,2023-11-13_12h53.38.995,Selektive Wahrnehmung,2023.2.3,60.05208917680316,2023-11-13 13h02.00.950362 +0100,
gesicht1,4,13,77,8,,,,,459.85447329998715,,,,,,,,,,459.8230045000091,459.85447329998715,461.85426940000616,462.85419799998635,3.032039999990957,463.6236508000002,"[0, 300]",[0.03148148148148148],[0.18981481481481483],[1],[0],[0],[0.7685434000159148],[1],['target_find'],463.62503530000686,464.63890489999903,,,,,,,,,,,,,,,,,,,,,,,,,,,,,,,,625308,001,2023-11-13_12h53.38.995,Selektive Wahrnehmung,2023.2.3,60.05208917680316,2023-11-13 13h02.00.950362 +0100,
schlange2,4,14,78,3,,,,,464.68734929998755,,,,,,,,,,464.63975740000024,464.68734929998755,466.688375800004,467.65390710000065,3.0150488000072073,468.7088068999874,"[-300, 300]",[-0.20277777777777778],[0.25925925925925924],[1],[0],[0],[1.053763500007335],[1],['target_find'],468.7105876999849,469.7219790999952,,,,,,,,,,,,,,,,,,,,,,,,,,,,,,,,625308,001,2023-11-13_12h53.38.995,Selektive Wahrnehmung,2023.2.3,60.05208917680316,2023-11-13 13h02.00.950362 +0100,
flugzeug1,4,15,79,13,,,,,469.7540881999885,,,,,,,,,,469.72281710000243,469.7540881999885,471.7537917000009,472.7537938999885,3.031884700001683,473.8572053000098,"[300, 0]",[0.22314814814814815],[-0.025925925925925925],[1],[0],[0],[1.1024571000016294],[1],['target_find'],473.85864059999585,474.87211249998654,,,,,,,,,,,,,,,,,,,,,,,,,,,,,,,,625308,001,2023-11-13_12h53.38.995,Selektive Wahrnehmung,2023.2.3,60.05208917680316,2023-11-13 13h02.00.950362 +0100,
,,,,,0,0,0,0,481.704813999997,,,,,,,,,,,,,,,,,,,,,,,,,,,474.88391609999235,478.90621699998155,478.9062474000093,481.6398317999847,481.6411892999895,493.7951019000029,1.0,4.0,auto1,,,,,,,,,,,,,,,,,,,,,,,625308,001,2023-11-13_12h53.38.995,Selektive Wahrnehmung,2023.2.3,60.05208917680316,2023-11-13 13h02.00.950362 +0100,
,,,,,1,0,1,0,493.85600179998437,,,,,,,,,,,,,,,,,,,,,,,,,,,,,,,493.79546399999526,500.19401119998656,1.0,2.0,spinne1,,,,,,,,,,,,,,,,,,,,,,,625308,001,2023-11-13_12h53.38.995,Selektive Wahrnehmung,2023.2.3,60.05208917680316,2023-11-13 13h02.00.950362 +0100,
,,,,,2,0,2,0,500.23738539998885,,,,,,,,,,,,,,,,,,,,,,,,,,,,,,,500.19429270000546,505.5105410999968,1.0,4.0,gesicht1,,,,,,,,,,,,,,,,,,,,,,,625308,001,2023-11-13_12h53.38.995,Selektive Wahrnehmung,2023.2.3,60.05208917680316,2023-11-13 13h02.00.950362 +0100,
,,,,,3,0,3,0,505.5721904000093,,,,,,,,,,,,,,,,,,,,,,,,,,,,,,,505.5108323000022,509.9935576999851,1.0,5.0,schlange1,,,,,,,,,,,,,,,,,,,,,,,625308,001,2023-11-13_12h53.38.995,Selektive Wahrnehmung,2023.2.3,60.05208917680316,2023-11-13 13h02.00.950362 +0100,
,,,,,4,0,4,0,510.0369759000023,,,,,,,,,,,,,,,,,,,,,,,,,,,,,,,509.9938476999814,515.9768218999961,2.0,1.0,person2,,,,,,,,,,,,,,,,,,,,,,,625308,001,2023-11-13_12h53.38.995,Selektive Wahrnehmung,2023.2.3,60.05208917680316,2023-11-13 13h02.00.950362 +0100,
,,,,,,,,,,,,,,,,,,,,,,,,,,,,,,,,,,,,,,,,,,,,,516.0400793000008,523.3899819999933,21 ,1.0,523.3900043999893,536.9101028000005,4.0,1.0,536.9101231000095,542.454668099992,542.4547047000087,565.751929399994,3.0,4.0,5.0,1.0,565.7519545999821,579.5917519000068,2.0,4.0,579.5917725999898,580.2688568999874,,,,,,,,
