Target,trials.thisRepN,trials.thisTrialN,trials.thisN,trials.thisIndex,trials_2.thisRepN,trials_2.thisTrialN,trials_2.thisN,trials_2.thisIndex,thisRow.t,notes,Data_transparency.started,key_resp_data_transp.started,Data_transparency.stopped,key_resp_data_transp.keys,key_resp_data_transp.rt,key_resp_data_transp.duration,instructions.started,instructions.stopped,trial.started,target_show.started,target_show.stopped,target_find.started,mouse.started,trial.stopped,target_position_x_y,mouse.x,mouse.y,mouse.leftButton,mouse.midButton,mouse.rightButton,mouse.time,mouse.corr,mouse.clicked_name,feedback.started,feedback.stopped,instructions_survey.started,instructions_survey.stopped,instructions_ratings.started,instructions_ratings.stopped,survey_ratings.started,survey_ratings.stopped,furcht.response,liebenswert.response,rated_image,survey_gen.started,survey_gen.stopped,age.text,gender.response,survey_games.started,survey_games.stopped,pc_frequency.response,reaction_games_frequency.response,instructions_neuro.started,instructions_neuro.stopped,survey_neuro.started,survey_neuro.stopped,neuro_1_rev.response,neuro_2.response,neuro_3.response,neuro_4_rev.response,survey_fear.started,survey_fear.stopped,specific_fear_spider.response,specific_fear_snake.response,thanks.started,thanks.stopped,participant,session,date,expName,psychopyVersion,frameRate,expStart,
,,,,,,,,,,,0.01983450000079756,0.036414400001376634,23.834957300001406,z,23.790548000000854,None,,,,,,,,,,,,,,,,,,,,,,,,,,,,,,,,,,,,,,,,,,,,,,,,,,,765483,001,2023-11-06_14h28.58.183,Selektive Wahrnehmung,2023.2.3,60.04365173473507,2023-11-06 14h29.08.467881 +0100,
,,,,,,,,,,,,,,,,,23.835014800000863,40.269305100000565,,,,,,,,,,,,,,,,,,,,,,,,,,,,,,,,,,,,,,,,,,,,,,,,,765483,001,2023-11-06_14h28.58.183,Selektive Wahrnehmung,2023.2.3,60.04365173473507,2023-11-06 14h29.08.467881 +0100,
gruppe1,0,0,0,6,,,,,40.334389500001635,,,,,,,,,,40.28894890000083,40.334389500001635,42.3495051000009,43.298085600001286,3.028902099998959,44.00094020000142,"[300, 0]",[0.3527777777777778],[0.009259259259259259],[1],[0],[0],[0.7020577000002959],[1],['target_find'],44.00278570000046,45.01558480000131,,,,,,,,,,,,,,,,,,,,,,,,,,,,,,,,765483,001,2023-11-06_14h28.58.183,Selektive Wahrnehmung,2023.2.3,60.04365173473507,2023-11-06 14h29.08.467881 +0100,
gesicht1,0,1,1,8,,,,,45.064758400001665,,,,,,,,,,45.016201500000534,45.064758400001665,47.0645798000005,48.04761090000102,2.9990170000000944,48.966705300001195,"[-300, 0]",[-0.26666666666666666],[-0.013888888888888888],[1],[0],[0],[0.951118700000734],[1],['target_find'],48.96754190000138,49.98221080000076,,,,,,,,,,,,,,,,,,,,,,,,,,,,,,,,765483,001,2023-11-06_14h28.58.183,Selektive Wahrnehmung,2023.2.3,60.04365173473507,2023-11-06 14h29.08.467881 +0100,
auto1,0,2,2,12,,,,,50.017533100000946,,,,,,,,,,49.98269310000069,50.017533100000946,52.03221530000155,52.99745729999995,3.0153113000014855,53.74967040000047,"[0, 300]",[-0.021296296296296296],[0.16111111111111112],[1],[0],[0],[0.7515105999991647],[1],['target_find'],53.750508200000695,54.76465520000056,,,,,,,,,,,,,,,,,,,,,,,,,,,,,,,,765483,001,2023-11-06_14h28.58.183,Selektive Wahrnehmung,2023.2.3,60.04365173473507,2023-11-06 14h29.08.467881 +0100,
schiff1,0,3,3,14,,,,,54.79767730000094,,,,,,,,,,54.76492210000106,54.79767730000094,56.797390200001246,57.79743270000108,3.032876400000532,58.40124050000122,"[-300, 0]",[-0.22314814814814815],[0.05277777777777778],[1],[0],[0],[0.6028822999996919],[1],['target_find'],58.402518100001544,59.41565420000006,,,,,,,,,,,,,,,,,,,,,,,,,,,,,,,,765483,001,2023-11-06_14h28.58.183,Selektive Wahrnehmung,2023.2.3,60.04365173473507,2023-11-06 14h29.08.467881 +0100,
zug1,0,4,4,15,,,,,59.61728790000052,,,,,,,,,,59.41614960000152,59.61728790000052,61.631778200000554,62.46389700000145,3.0483406000003015,63.39996130000145,"[-300, 300]",[-0.20277777777777778],[0.25092592592592594],[1],[0],[0],[0.9352543000004516],[1],['target_find'],63.4010173000006,64.41505680000046,,,,,,,,,,,,,,,,,,,,,,,,,,,,,,,,765483,001,2023-11-06_14h28.58.183,Selektive Wahrnehmung,2023.2.3,60.04365173473507,2023-11-06 14h29.08.467881 +0100,
spinne1,0,5,5,0,,,,,64.53028040000027,,,,,,,,,,64.4158178000016,64.53028040000027,66.53021470000022,67.48052070000085,3.0655530000003637,68.03323150000142,"[0, 300]",[-0.010185185185185186],[0.2351851851851852],[1],[0],[0],[0.5519753999997192],[1],['target_find'],68.03420260000166,69.04780420000134,,,,,,,,,,,,,,,,,,,,,,,,,,,,,,,,765483,001,2023-11-06_14h28.58.183,Selektive Wahrnehmung,2023.2.3,60.04365173473507,2023-11-06 14h29.08.467881 +0100,
gesicht4,0,6,6,11,,,,,69.08349100000123,,,,,,,,,,69.04830580000089,69.08349100000123,71.09830260000126,72.09683600000062,3.0490907000003062,72.56661310000163,"[0, 300]",[-0.02962962962962963],[0.2037037037037037],[1],[0],[0],[0.46899370000028284],[1],['target_find'],72.5676996000002,73.5809175000013,,,,,,,,,,,,,,,,,,,,,,,,,,,,,,,,765483,001,2023-11-06_14h28.58.183,Selektive Wahrnehmung,2023.2.3,60.04365173473507,2023-11-06 14h29.08.467881 +0100,
person2,0,7,7,5,,,,,73.6132290000005,,,,,,,,,,73.58144770000035,73.6132290000005,75.61336200000005,76.61322700000164,3.0325410999994347,77.44974270000057,"[-300, -300]",[-0.36203703703703705],[-0.2675925925925926],[1],[0],[0],[0.835305900000094],[1],['target_find'],77.4510209,78.46420580000085,,,,,,,,,,,,,,,,,,,,,,,,,,,,,,,,765483,001,2023-11-06_14h28.58.183,Selektive Wahrnehmung,2023.2.3,60.04365173473507,2023-11-06 14h29.08.467881 +0100,
schlange2,0,8,8,3,,,,,78.4995480000016,,,,,,,,,,78.46471120000024,78.4995480000016,80.51324150000073,81.49640050000016,3.032282199999827,82.5504787000009,"[-300, 0]",[-0.28055555555555556],[-0.012037037037037037],[1],[0],[0],[1.053221799998937],[1],['target_find'],82.55159950000052,83.56430750000072,,,,,,,,,,,,,,,,,,,,,,,,,,,,,,,,765483,001,2023-11-06_14h28.58.183,Selektive Wahrnehmung,2023.2.3,60.04365173473507,2023-11-06 14h29.08.467881 +0100,
schlange1,0,9,9,2,,,,,83.67961530000139,,,,,,,,,,83.56505610000022,83.67961530000139,85.67966700000034,86.61308340000141,3.0490489000003436,87.39765919999991,"[300, 0]",[0.2935185185185185],[0.03148148148148148],[1],[0],[0],[0.7837635000014416],[1],['target_find'],87.39817949999997,88.41495750000104,,,,,,,,,,,,,,,,,,,,,,,,,,,,,,,,765483,001,2023-11-06_14h28.58.183,Selektive Wahrnehmung,2023.2.3,60.04365173473507,2023-11-06 14h29.08.467881 +0100,
spinne2,0,10,10,1,,,,,88.63287170000149,,,,,,,,,,88.41546950000156,88.63287170000149,90.6474300000009,91.46248999999989,3.047590100000889,92.1653365000002,"[-300, 0]",[-0.14814814814814814],[0.007407407407407408],[1],[0],[0],[0.7020628999998735],[1],['target_find'],92.16661420000128,93.18018260000099,,,,,,,,,,,,,,,,,,,,,,,,,,,,,,,,765483,001,2023-11-06_14h28.58.183,Selektive Wahrnehmung,2023.2.3,60.04365173473507,2023-11-06 14h29.08.467881 +0100,
person1,0,11,11,4,,,,,93.24588930000027,,,,,,,,,,93.1807731000008,93.24588930000027,95.24594040000011,96.22907340000165,2.9990832999992563,96.9988024000013,"[0, 300]",[0.016666666666666666],[0.34444444444444444],[1],[0],[0],[0.8187128999998095],[1],['target_find'],96.99922730000071,98.01453140000012,,,,,,,,,,,,,,,,,,,,,,,,,,,,,,,,765483,001,2023-11-06_14h28.58.183,Selektive Wahrnehmung,2023.2.3,60.04365173473507,2023-11-06 14h29.08.467881 +0100,
gesicht3,0,12,12,10,,,,,98.04900510000152,,,,,,,,,,98.0150502000015,98.04900510000152,100.06267860000116,101.04573950000122,3.0315150000005815,101.91384890000154,"[-300, 300]",[-0.2222222222222222],[0.26944444444444443],[1],[0],[0],[0.8672969999988709],[1],['target_find'],101.91437110000152,102.9294299000012,,,,,,,,,,,,,,,,,,,,,,,,,,,,,,,,765483,001,2023-11-06_14h28.58.183,Selektive Wahrnehmung,2023.2.3,60.04365173473507,2023-11-06 14h29.08.467881 +0100,
gesicht2,0,13,13,9,,,,,102.96217010000146,,,,,,,,,,102.92981850000069,102.96217010000146,104.96185010000045,105.94550320000053,3.016170400000192,106.56524020000143,"[0, 300]",[-0.06111111111111111],[0.23055555555555557],[1],[0],[0],[0.6189432999999553],[1],['target_find'],106.5663710000008,107.58145300000069,,,,,,,,,,,,,,,,,,,,,,,,,,,,,,,,765483,001,2023-11-06_14h28.58.183,Selektive Wahrnehmung,2023.2.3,60.04365173473507,2023-11-06 14h29.08.467881 +0100,
flugzeug1,0,14,14,13,,,,,107.6317852000011,,,,,,,,,,107.58232649999991,107.6317852000011,109.64663790000122,110.62842630000159,3.0470189999996364,111.26379760000054,"[0, 300]",[-0.046296296296296294],[0.20277777777777778],[1],[0],[0],[0.6347168000011152],[1],['target_find'],111.26464920000035,112.2797941000008,,,,,,,,,,,,,,,,,,,,,,,,,,,,,,,,765483,001,2023-11-06_14h28.58.183,Selektive Wahrnehmung,2023.2.3,60.04365173473507,2023-11-06 14h29.08.467881 +0100,
gruppe2,0,15,15,7,,,,,112.3285289000014,,,,,,,,,,112.28054900000097,112.3285289000014,114.32848300000114,115.31169520000003,3.0320983000001434,115.86513280000145,"[0, 300]",[-0.044444444444444446],[0.22314814814814815],[1],[0],[0],[0.5523794000000635],[1],['target_find'],115.86638029999995,116.8797856000001,,,,,,,,,,,,,,,,,,,,,,,,,,,,,,,,765483,001,2023-11-06_14h28.58.183,Selektive Wahrnehmung,2023.2.3,60.04365173473507,2023-11-06 14h29.08.467881 +0100,
spinne2,1,0,16,1,,,,,117.07959380000102,,,,,,,,,,116.88054950000151,117.07959380000102,119.09503200000108,119.91132079999988,3.031587200001013,120.8822123000009,"[300, 0]",[0.2675925925925926],[0.06111111111111111],[1],[0],[0],[0.9696800000001531],[1],['target_find'],120.88347020000037,121.8949818000001,,,,,,,,,,,,,,,,,,,,,,,,,,,,,,,,765483,001,2023-11-06_14h28.58.183,Selektive Wahrnehmung,2023.2.3,60.04365173473507,2023-11-06 14h29.08.467881 +0100,
gesicht4,1,1,17,11,,,,,121.94448880000164,,,,,,,,,,121.89523900000131,121.94448880000164,123.94457910000165,124.94461730000148,3.049728199999663,125.4973972000007,"[300, 0]",[0.23055555555555557],[0.010185185185185186],[1],[0],[0],[0.5519669999994221],[1],['target_find'],125.49852340000143,126.51328140000078,,,,,,,,,,,,,,,,,,,,,,,,,,,,,,,,765483,001,2023-11-06_14h28.58.183,Selektive Wahrnehmung,2023.2.3,60.04365173473507,2023-11-06 14h29.08.467881 +0100,
zug1,1,2,18,15,,,,,126.5641566000013,,,,,,,,,,126.51402660000167,126.5641566000013,128.5778147000001,129.5111874000013,3.0145522999991954,130.46385650000047,"[300, -300]",[0.21944444444444444],[-0.22407407407407406],[1],[0],[0],[0.9352334999985032],[1],['target_find'],130.46498640000027,131.4784423000001,,,,,,,,,,,,,,,,,,,,,,,,,,,,,,,,765483,001,2023-11-06_14h28.58.183,Selektive Wahrnehmung,2023.2.3,60.04365173473507,2023-11-06 14h29.08.467881 +0100,
gesicht2,1,3,19,9,,,,,131.51109730000098,,,,,,,,,,131.47895570000037,131.51109730000098,133.5109194000015,134.51097450000088,2.999172100000578,135.28029950000018,"[-300, 300]",[-0.17592592592592593],[0.2064814814814815],[1],[0],[0],[0.8015276000005542],[1],['target_find'],135.2814266000005,136.2953980000002,,,,,,,,,,,,,,,,,,,,,,,,,,,,,,,,765483,001,2023-11-06_14h28.58.183,Selektive Wahrnehmung,2023.2.3,60.04365173473507,2023-11-06 14h29.08.467881 +0100,
schlange2,1,4,20,3,,,,,136.3468542999999,,,,,,,,,,136.29615840000042,136.3468542999999,138.36193900000035,139.32869140000003,3.03336599999966,140.0464346000008,"[300, 0]",[0.18055555555555555],[-0.009259259259259259],[1],[0],[0],[0.7169976999994105],[1],['target_find'],140.04730090000157,141.06162100000074,,,,,,,,,,,,,,,,,,,,,,,,,,,,,,,,765483,001,2023-11-06_14h28.58.183,Selektive Wahrnehmung,2023.2.3,60.04365173473507,2023-11-06 14h29.08.467881 +0100,
flugzeug1,1,5,21,13,,,,,141.09403610000118,,,,,,,,,,141.06228080000074,141.09403610000118,143.09396340000058,144.09391099999993,3.032365499999287,144.71169650000047,"[300, 0]",[0.1925925925925926],[0.013888888888888888],[1],[0],[0],[0.6172962999989977],[1],['target_find'],144.71219590000146,145.7289759000014,,,,,,,,,,,,,,,,,,,,,,,,,,,,,,,,765483,001,2023-11-06_14h28.58.183,Selektive Wahrnehmung,2023.2.3,60.04365173473507,2023-11-06 14h29.08.467881 +0100,
schiff1,1,6,22,14,,,,,145.76356220000162,,,,,,,,,,145.72947090000162,145.76356220000162,147.77773380000144,148.76043590000154,3.031540500000119,150.06272210000134,"[300, -300]",[0.3574074074074074],[-0.3277777777777778],[1],[0],[0],[1.3015516000014031],[1],['target_find'],150.06371180000133,151.0778779000011,,,,,,,,,,,,,,,,,,,,,,,,,,,,,,,,765483,001,2023-11-06_14h28.58.183,Selektive Wahrnehmung,2023.2.3,60.04365173473507,2023-11-06 14h29.08.467881 +0100,
schlange1,1,7,23,2,,,,,151.12683610000022,,,,,,,,,,151.07847530000072,151.12683610000022,153.1268342000003,154.10974140000144,3.0319203000017296,155.02931770000032,"[0, -300]",[0.05],[-0.23981481481481481],[1],[0],[0],[0.9188733999999386],[1],['target_find'],155.0302724000012,156.04391340000075,,,,,,,,,,,,,,,,,,,,,,,,,,,,,,,,765483,001,2023-11-06_14h28.58.183,Selektive Wahrnehmung,2023.2.3,60.04365173473507,2023-11-06 14h29.08.467881 +0100,
gesicht3,1,8,24,10,,,,,156.07990170000085,,,,,,,,,,156.04428650000045,156.07990170000085,158.09371040000042,159.0596686000008,3.015818300000319,159.59522880000077,"[-300, 0]",[-0.2064814814814815],[0.044444444444444446],[1],[0],[0],[0.5349034999999276],[1],['target_find'],159.5961084999999,160.61062120000133,,,,,,,,,,,,,,,,,,,,,,,,,,,,,,,,765483,001,2023-11-06_14h28.58.183,Selektive Wahrnehmung,2023.2.3,60.04365173473507,2023-11-06 14h29.08.467881 +0100,
gruppe1,1,9,25,6,,,,,160.64308190000156,,,,,,,,,,160.61110990000088,160.64308190000156,162.64300040000126,163.6597698000005,2.9991839999984222,164.36084480000136,"[0, -300]",[-0.002777777777777778],[-0.22870370370370371],[1],[0],[0],[0.7499874999994063],[1],['target_find'],164.36136120000083,165.37836030000108,,,,,,,,,,,,,,,,,,,,,,,,,,,,,,,,765483,001,2023-11-06_14h28.58.183,Selektive Wahrnehmung,2023.2.3,60.04365173473507,2023-11-06 14h29.08.467881 +0100,
person2,1,10,26,5,,,,,165.42928980000033,,,,,,,,,,165.37887260000025,165.42928980000033,167.4441697000002,168.44283010000072,2.999332700001105,168.9946656000011,"[0, -300]",[-0.020370370370370372],[-0.23425925925925925],[1],[0],[0],[0.6158194999989064],[1],['target_find'],168.99527060000037,170.01037570000153,,,,,,,,,,,,,,,,,,,,,,,,,,,,,,,,765483,001,2023-11-06_14h28.58.183,Selektive Wahrnehmung,2023.2.3,60.04365173473507,2023-11-06 14h29.08.467881 +0100,
person1,1,11,27,4,,,,,170.04261970000152,,,,,,,,,,170.01098290000118,170.04261970000152,172.04262200000085,173.04257870000038,3.0323091999998724,173.87867140000162,"[-300, -300]",[-0.4222222222222222],[-0.26851851851851855],[1],[0],[0],[0.8352260999999999],[],[],173.8798155000004,174.89382750000004,,,,,,,,,,,,,,,,,,,,,,,,,,,,,,,,765483,001,2023-11-06_14h28.58.183,Selektive Wahrnehmung,2023.2.3,60.04365173473507,2023-11-06 14h29.08.467881 +0100,
gruppe2,1,12,28,7,,,,,174.94543909999993,,,,,,,,,,174.89445460000024,174.94543909999993,176.96036640000057,177.90930079999998,3.0157565000008617,178.69553260000066,"[-300, -300]",[-0.24259259259259258],[-0.2490740740740741],[1],[0],[0],[0.7851325999999972],[1],['target_find'],178.69657220000045,179.71112920000087,,,,,,,,,,,,,,,,,,,,,,,,,,,,,,,,765483,001,2023-11-06_14h28.58.183,Selektive Wahrnehmung,2023.2.3,60.04365173473507,2023-11-06 14h29.08.467881 +0100,
spinne1,1,13,29,0,,,,,179.76202280000143,,,,,,,,,,179.71172970000043,179.76202280000143,181.77570210000158,182.74229200000082,3.0312391000006755,183.46228770000016,"[300, -300]",[0.2388888888888889],[-0.20833333333333334],[1],[0],[0],[0.719079899999997],[1],['target_find'],183.4637416000005,184.47700570000052,,,,,,,,,,,,,,,,,,,,,,,,,,,,,,,,765483,001,2023-11-06_14h28.58.183,Selektive Wahrnehmung,2023.2.3,60.04365173473507,2023-11-06 14h29.08.467881 +0100,
auto1,1,14,30,12,,,,,184.5253126000007,,,,,,,,,,184.47787130000142,184.5253126000007,186.52527050000026,187.508856800001,3.0321235000010347,188.22761900000114,"[300, 0]",[0.32037037037037036],[-0.016666666666666666],[1],[0],[0],[0.7178108999996766],[1],['target_find'],188.2284534999999,189.24314920000143,,,,,,,,,,,,,,,,,,,,,,,,,,,,,,,,765483,001,2023-11-06_14h28.58.183,Selektive Wahrnehmung,2023.2.3,60.04365173473507,2023-11-06 14h29.08.467881 +0100,
gesicht1,1,15,31,8,,,,,189.29485449999993,,,,,,,,,,189.24381979999998,189.29485449999993,191.30961170000046,192.25830459999997,3.0152105999986816,193.11074800000097,"[300, -300]",[0.19907407407407407],[-0.19166666666666668],[1],[0],[0],[0.8518018999984633],[1],['target_find'],193.11157840000124,194.12618370000018,,,,,,,,,,,,,,,,,,,,,,,,,,,,,,,,765483,001,2023-11-06_14h28.58.183,Selektive Wahrnehmung,2023.2.3,60.04365173473507,2023-11-06 14h29.08.467881 +0100,
gruppe1,2,0,32,6,,,,,194.1749187000005,,,,,,,,,,194.12695860000167,194.1749187000005,196.1750245000003,197.15794150000147,3.03181129999939,197.82746720000068,"[300, -300]",[0.26481481481481484],[-0.1814814814814815],[1],[0],[0],[0.668643200000588],[1],['target_find'],197.82862940000086,198.84310570000162,,,,,,,,,,,,,,,,,,,,,,,,,,,,,,,,765483,001,2023-11-06_14h28.58.183,Selektive Wahrnehmung,2023.2.3,60.04365173473507,2023-11-06 14h29.08.467881 +0100,
gesicht2,2,1,33,9,,,,,198.8776579000005,,,,,,,,,,198.8439167000015,198.8776579000005,200.89268470000025,201.87476659999993,3.0319233000009262,202.70897890000015,"[0, -300]",[0.007407407407407408],[-0.18055555555555555],[1],[0],[0],[0.8334618999997474],[1],['target_find'],202.70948230000067,203.7253836,,,,,,,,,,,,,,,,,,,,,,,,,,,,,,,,765483,001,2023-11-06_14h28.58.183,Selektive Wahrnehmung,2023.2.3,60.04365173473507,2023-11-06 14h29.08.467881 +0100,
person1,2,2,34,4,,,,,203.75791460000073,,,,,,,,,,203.72587120000026,203.75791460000073,205.75784900000144,206.7579104000015,3.032606200000373,208.44363330000124,"[300, 300]",[0.21851851851851853],[0.25925925925925924],[1],[0],[0],[1.68487819999973],[1],['target_find'],208.4447694999999,209.45864580000125,,,,,,,,,,,,,,,,,,,,,,,,,,,,,,,,765483,001,2023-11-06_14h28.58.183,Selektive Wahrnehmung,2023.2.3,60.04365173473507,2023-11-06 14h29.08.467881 +0100,
gesicht4,2,3,35,11,,,,,209.50779550000152,,,,,,,,,,209.45925290000014,209.50779550000152,211.50758040000073,212.49082870000166,2.9990694999996776,213.1772118000008,"[-300, -300]",[-0.2611111111111111],[-0.27685185185185185],[1],[0],[0],[0.7183201000007102],[1],['target_find'],213.17833670000073,214.19342900000083,,,,,,,,,,,,,,,,,,,,,,,,,,,,,,,,765483,001,2023-11-06_14h28.58.183,Selektive Wahrnehmung,2023.2.3,60.04365173473507,2023-11-06 14h29.08.467881 +0100,
person2,2,4,36,5,,,,,214.26068670000132,,,,,,,,,,214.19431070000064,214.26068670000132,216.27521490000072,217.22393680000096,3.0305576999999175,217.8603114000016,"[300, 0]",[0.2518518518518518],[-0.000925925925925926],[1],[0],[0],[0.6354575000004843],[1],['target_find'],217.86169090000112,218.87518150000142,,,,,,,,,,,,,,,,,,,,,,,,,,,,,,,,765483,001,2023-11-06_14h28.58.183,Selektive Wahrnehmung,2023.2.3,60.04365173473507,2023-11-06 14h29.08.467881 +0100,
gesicht3,2,5,37,10,,,,,218.90743100000145,,,,,,,,,,218.87594140000147,218.90743100000145,220.90727310000148,221.907277100001,3.0321652999991784,222.59381010000106,"[300, -300]",[0.18703703703703703],[-0.19166666666666668],[1],[0],[0],[0.6856270000007498],[1],['target_find'],222.59493850000035,223.60934050000105,,,,,,,,,,,,,,,,,,,,,,,,,,,,,,,,765483,001,2023-11-06_14h28.58.183,Selektive Wahrnehmung,2023.2.3,60.04365173473507,2023-11-06 14h29.08.467881 +0100,
auto1,2,6,38,12,,,,,223.64180380000107,,,,,,,,,,223.60982870000043,223.64180380000107,225.64152880000074,226.6403123,2.9991190000000643,227.32931830000052,"[0, 300]",[-0.001851851851851852],[0.2111111111111111],[1],[0],[0],[0.7192347000000154],[1],['target_find'],227.33138270000018,228.3412926000001,,,,,,,,,,,,,,,,,,,,,,,,,,,,,,,,765483,001,2023-11-06_14h28.58.183,Selektive Wahrnehmung,2023.2.3,60.04365173473507,2023-11-06 14h29.08.467881 +0100,
schlange2,2,7,39,3,,,,,228.37365300000056,,,,,,,,,,228.3419354000016,228.37365300000056,230.373528600001,231.37347910000062,3.0324651999999332,232.14284540000153,"[300, -300]",[0.23425925925925925],[-0.22592592592592592],[1],[0],[0],[0.76858859999993],[1],['target_find'],232.14337780000096,233.1574356000001,,,,,,,,,,,,,,,,,,,,,,,,,,,,,,,,765483,001,2023-11-06_14h28.58.183,Selektive Wahrnehmung,2023.2.3,60.04365173473507,2023-11-06 14h29.08.467881 +0100,
flugzeug1,2,8,40,13,,,,,233.1901140000009,,,,,,,,,,233.15788460000113,233.1901140000009,235.18999299999996,236.17334350000056,3.0159906999997474,236.99208800000088,"[-300, -300]",[-0.17314814814814813],[-0.2175925925925926],[1],[0],[0],[0.8180444999998144],[1],['target_find'],236.99292349999996,238.0071392000009,,,,,,,,,,,,,,,,,,,,,,,,,,,,,,,,765483,001,2023-11-06_14h28.58.183,Selektive Wahrnehmung,2023.2.3,60.04365173473507,2023-11-06 14h29.08.467881 +0100,
spinne1,2,9,41,0,,,,,238.04005040000084,,,,,,,,,,238.0075422000009,238.04005040000084,240.0409378000004,241.0398245000015,3.0327795000011974,241.90930650000155,"[-300, -300]",[-0.20092592592592592],[-0.18796296296296297],[1],[0],[0],[0.8686393000007229],[1],['target_find'],241.910349400001,242.92392990000008,,,,,,,,,,,,,,,,,,,,,,,,,,,,,,,,765483,001,2023-11-06_14h28.58.183,Selektive Wahrnehmung,2023.2.3,60.04365173473507,2023-11-06 14h29.08.467881 +0100,
gruppe2,2,10,42,7,,,,,242.97287600000163,,,,,,,,,,242.92452080000112,242.97287600000163,244.97289960000126,245.95596670000123,3.0321230000008654,247.19382750000113,"[0, 300]",[-0.026851851851851852],[0.23981481481481481],[1],[0],[0],[1.2369747000011557],[1],['target_find'],247.19495370000004,248.20799670000088,,,,,,,,,,,,,,,,,,,,,,,,,,,,,,,,765483,001,2023-11-06_14h28.58.183,Selektive Wahrnehmung,2023.2.3,60.04365173473507,2023-11-06 14h29.08.467881 +0100,
gesicht1,2,11,43,8,,,,,248.24268360000133,,,,,,,,,,248.20848210000077,248.24268360000133,250.25729580000007,251.2392542000016,3.031337700000222,252.0251590000007,"[300, -300]",[0.2740740740740741],[-0.28888888888888886],[1],[0],[0],[0.7851790000004257],[1],['target_find'],252.02613040000142,253.0400411999999,,,,,,,,,,,,,,,,,,,,,,,,,,,,,,,,765483,001,2023-11-06_14h28.58.183,Selektive Wahrnehmung,2023.2.3,60.04365173473507,2023-11-06 14h29.08.467881 +0100,
spinne2,2,12,44,1,,,,,253.2224251000007,,,,,,,,,,253.0405322000006,253.2224251000007,255.2224444000003,256.08899910000036,2.9991016999993008,257.0919150000009,"[0, -300]",[-0.024074074074074074],[-0.17685185185185184],[1],[0],[0],[1.0516549000003579],[1],['target_find'],257.0930464000012,258.10751810000147,,,,,,,,,,,,,,,,,,,,,,,,,,,,,,,,765483,001,2023-11-06_14h28.58.183,Selektive Wahrnehmung,2023.2.3,60.04365173473507,2023-11-06 14h29.08.467881 +0100,
schlange1,2,13,45,2,,,,,258.1736681000002,,,,,,,,,,258.1080275000004,258.1736681000002,260.1736105,261.1735937000012,3.0663633000003756,262.092744900001,"[300, 300]",[0.16666666666666666],[0.2851851851851852],[1],[0],[0],[0.9179495999997016],[1],['target_find'],262.0938005000007,263.1064217000003,,,,,,,,,,,,,,,,,,,,,,,,,,,,,,,,765483,001,2023-11-06_14h28.58.183,Selektive Wahrnehmung,2023.2.3,60.04365173473507,2023-11-06 14h29.08.467881 +0100,
schiff1,2,14,46,14,,,,,263.14184580000074,,,,,,,,,,263.10698010000124,263.14184580000074,265.15553700000055,266.1217933000007,3.0160133999997925,266.6414977000004,"[300, 0]",[0.21851851851851853],[0.03425925925925926],[1],[0],[0],[0.5182944999996835],[1],['target_find'],266.6426384000006,267.6561481000008,,,,,,,,,,,,,,,,,,,,,,,,,,,,,,,,765483,001,2023-11-06_14h28.58.183,Selektive Wahrnehmung,2023.2.3,60.04365173473507,2023-11-06 14h29.08.467881 +0100,
zug1,2,15,47,15,,,,,267.6883757000014,,,,,,,,,,267.65674780000154,267.6883757000014,269.68843540000125,270.68821690000004,2.999336500000936,271.62488010000015,"[-300, 0]",[-0.2564814814814815],[-0.003703703703703704],[1],[0],[0],[0.9680207000001246],[1],['target_find'],271.6260817000002,272.6396364000011,,,,,,,,,,,,,,,,,,,,,,,,,,,,,,,,765483,001,2023-11-06_14h28.58.183,Selektive Wahrnehmung,2023.2.3,60.04365173473507,2023-11-06 14h29.08.467881 +0100,
auto1,3,0,48,12,,,,,272.69133520000105,,,,,,,,,,272.6402790000011,272.69133520000105,274.7059416000011,275.6546423,3.0150552000013704,276.9072242000002,"[300, -300]",[0.2],[-0.26944444444444443],[1],[0],[0],[1.2516749999995227],[1],['target_find'],276.90820390000044,277.9223879000001,,,,,,,,,,,,,,,,,,,,,,,,,,,,,,,,765483,001,2023-11-06_14h28.58.183,Selektive Wahrnehmung,2023.2.3,60.04365173473507,2023-11-06 14h29.08.467881 +0100,
gesicht4,3,1,49,11,,,,,277.9713270000011,,,,,,,,,,277.9230587000002,277.9713270000011,279.9711449000006,280.95463590000145,2.9992103000004136,281.65598020000107,"[0, 300]",[-0.010185185185185186],[0.2833333333333333],[1],[0],[0],[0.7333945999998832],[1],['target_find'],281.6564562000003,282.67198129999997,,,,,,,,,,,,,,,,,,,,,,,,,,,,,,,,765483,001,2023-11-06_14h28.58.183,Selektive Wahrnehmung,2023.2.3,60.04365173473507,2023-11-06 14h29.08.467881 +0100,
zug1,3,2,50,15,,,,,282.7043056000002,,,,,,,,,,282.67248330000075,282.7043056000002,284.70423850000043,285.68792530000064,3.0160263999987365,286.25655090000146,"[0, 300]",[0.012962962962962963],[0.3398148148148148],[1],[0],[0],[0.5679197000008571],[1],['target_find'],286.25761779999993,287.27199800000017,,,,,,,,,,,,,,,,,,,,,,,,,,,,,,,,765483,001,2023-11-06_14h28.58.183,Selektive Wahrnehmung,2023.2.3,60.04365173473507,2023-11-06 14h29.08.467881 +0100,
person2,3,3,51,5,,,,,287.3209973000012,,,,,,,,,,287.2725295,287.3209973000012,289.32239460000164,290.30432810000093,3.0324044000008143,290.9568954000006,"[-300, 300]",[-0.2574074074074074],[0.28055555555555556],[1],[0],[0],[0.6518436999995174],[1],['target_find'],290.9578397000005,291.9719240000013,,,,,,,,,,,,,,,,,,,,,,,,,,,,,,,,765483,001,2023-11-06_14h28.58.183,Selektive Wahrnehmung,2023.2.3,60.04365173473507,2023-11-06 14h29.08.467881 +0100,
gesicht3,3,4,52,10,,,,,292.0209876000008,,,,,,,,,,291.97253210000054,292.0209876000008,294.02080920000117,295.0041745000017,3.0323362999988603,295.6885964000012,"[-300, 0]",[-0.25277777777777777],[0.05555555555555555],[1],[0],[0],[0.6839012000000366],[1],['target_find'],295.68911389999994,296.7041839000012,,,,,,,,,,,,,,,,,,,,,,,,,,,,,,,,765483,001,2023-11-06_14h28.58.183,Selektive Wahrnehmung,2023.2.3,60.04365173473507,2023-11-06 14h29.08.467881 +0100,
person1,3,5,53,4,,,,,296.7383460000001,,,,,,,,,,296.70443160000104,296.7383460000001,298.7382028000011,299.73732030000065,3.0332363999987138,300.5400864000003,"[-300, 300]",[-0.20833333333333334],[0.27037037037037037],[1],[0],[0],[0.8019059999987803],[1],['target_find'],300.54110910000054,301.55478330000005,,,,,,,,,,,,,,,,,,,,,,,,,,,,,,,,765483,001,2023-11-06_14h28.58.183,Selektive Wahrnehmung,2023.2.3,60.04365173473507,2023-11-06 14h29.08.467881 +0100,
gesicht2,3,6,54,9,,,,,301.6037043000015,,,,,,,,,,301.55538310000156,301.6037043000015,303.6038317000002,304.5871272000004,3.032419299999674,305.6059728,"[300, 300]",[0.3101851851851852],[0.2712962962962963],[1],[0],[0],[1.018364699999438],[1],['target_find'],305.606472200001,306.6218265000007,,,,,,,,,,,,,,,,,,,,,,,,,,,,,,,,765483,001,2023-11-06_14h28.58.183,Selektive Wahrnehmung,2023.2.3,60.04365173473507,2023-11-06 14h29.08.467881 +0100,
schiff1,3,7,55,14,,,,,306.6565369,,,,,,,,,,306.6223273000014,306.6565369,308.67024240000137,309.63664810000046,3.0148823999988963,310.4213006000009,"[0, -300]",[-0.03611111111111111],[-0.2824074074074074],[1],[0],[0],[0.7841494000003877],[1],['target_find'],310.4217765000012,311.4379495000012,,,,,,,,,,,,,,,,,,,,,,,,,,,,,,,,765483,001,2023-11-06_14h28.58.183,Selektive Wahrnehmung,2023.2.3,60.04365173473507,2023-11-06 14h29.08.467881 +0100,
gruppe1,3,8,56,6,,,,,311.47008800000003,,,,,,,,,,311.4386942000001,311.47008800000003,313.4700843999999,314.47002950000024,3.0321481000009953,315.2566338000015,"[300, 0]",[0.21851851851851853],[-0.001851851851851852],[1],[0],[0],[0.7856898999998521],[1],['target_find'],315.2579994000007,316.270950600001,,,,,,,,,,,,,,,,,,,,,,,,,,,,,,,,765483,001,2023-11-06_14h28.58.183,Selektive Wahrnehmung,2023.2.3,60.04365173473507,2023-11-06 14h29.08.467881 +0100,
gruppe2,3,9,57,7,,,,,316.32281090000106,,,,,,,,,,316.27158730000156,316.32281090000106,318.3366063000012,319.28632110000035,3.0154323000006116,320.4220399000005,"[300, -300]",[0.2972222222222222],[-0.20833333333333334],[1],[0],[0],[1.1350610999998025],[1],['target_find'],320.4228793000002,321.43724120000115,,,,,,,,,,,,,,,,,,,,,,,,,,,,,,,,765483,001,2023-11-06_14h28.58.183,Selektive Wahrnehmung,2023.2.3,60.04365173473507,2023-11-06 14h29.08.467881 +0100,
spinne2,3,10,58,1,,,,,321.6362379000002,,,,,,,,,,321.43777170000067,321.6362379000002,323.6362469000014,324.4861346000016,3.048975400000927,325.5562697000005,"[0, 300]",[0.06944444444444445],[0.33796296296296297],[1],[0],[0],[1.0693967999995948],[1],['target_find'],325.5572183000004,326.5713284000012,,,,,,,,,,,,,,,,,,,,,,,,,,,,,,,,765483,001,2023-11-06_14h28.58.183,Selektive Wahrnehmung,2023.2.3,60.04365173473507,2023-11-06 14h29.08.467881 +0100,
schlange2,3,11,59,3,,,,,326.6541988000008,,,,,,,,,,326.5722256000008,326.6541988000008,328.65389380000124,329.6361631,3.064910500001133,330.38928600000145,"[0, -300]",[-0.06759259259259259],[-0.2518518518518518],[1],[0],[0],[0.7523691000005783],[1],['target_find'],330.3901631000008,331.4032164,,,,,,,,,,,,,,,,,,,,,,,,,,,,,,,,765483,001,2023-11-06_14h28.58.183,Selektive Wahrnehmung,2023.2.3,60.04365173473507,2023-11-06 14h29.08.467881 +0100,
spinne1,3,12,60,0,,,,,331.4359451,,,,,,,,,,331.4036145000009,331.4359451,333.4358361000013,334.4189194999999,3.0159640000001673,334.97123420000025,"[-300, 0]",[-0.1787037037037037],[0.005555555555555556],[1],[0],[0],[0.5513174999996409],[1],['target_find'],334.9720674,335.9869092000008,,,,,,,,,,,,,,,,,,,,,,,,,,,,,,,,765483,001,2023-11-06_14h28.58.183,Selektive Wahrnehmung,2023.2.3,60.04365173473507,2023-11-06 14h29.08.467881 +0100,
gesicht1,3,13,61,8,,,,,336.0189605000014,,,,,,,,,,335.9877784,336.0189605000014,338.0199005000013,339.0369006000001,3.050274300001547,339.67226540000047,"[-300, -300]",[-0.1675925925925926],[-0.13240740740740742],[1],[0],[0],[0.6345633000000817],[0],['dis4'],339.67277770000146,340.6865989000016,,,,,,,,,,,,,,,,,,,,,,,,,,,,,,,,765483,001,2023-11-06_14h28.58.183,Selektive Wahrnehmung,2023.2.3,60.04365173473507,2023-11-06 14h29.08.467881 +0100,
flugzeug1,3,14,62,13,,,,,340.7351329000012,,,,,,,,,,340.6871979000007,340.7351329000012,342.7350501000001,343.7188328000011,3.0325181999996857,344.85349600000154,"[-300, 300]",[-0.3768518518518518],[0.33425925925925926],[1],[0],[0],[1.13376849999986],[1],['target_find'],344.8540477000006,345.87079950000043,,,,,,,,,,,,,,,,,,,,,,,,,,,,,,,,765483,001,2023-11-06_14h28.58.183,Selektive Wahrnehmung,2023.2.3,60.04365173473507,2023-11-06 14h29.08.467881 +0100,
schlange1,3,15,63,2,,,,,345.9052103000013,,,,,,,,,,345.8713907000001,345.9052103000013,347.9198655,348.90163550000034,2.9990268999990803,349.987560900001,"[300, -300]",[0.3055555555555556],[-0.3287037037037037],[1],[0],[0],[1.1166428999986238],[1],['target_find'],349.98851260000083,351.00303070000155,,,,,,,,,,,,,,,,,,,,,,,,,,,,,,,,765483,001,2023-11-06_14h28.58.183,Selektive Wahrnehmung,2023.2.3,60.04365173473507,2023-11-06 14h29.08.467881 +0100,
schlange2,4,0,64,3,,,,,351.0515484000007,,,,,,,,,,351.00383630000033,351.0515484000007,353.05164800000057,354.03464150000036,3.0316669999992882,354.8379283000013,"[-300, 0]",[-0.24259259259259258],[-0.008333333333333333],[1],[0],[0],[0.8024823999985529],[1],['target_find'],354.8390433000004,355.85311720000027,,,,,,,,,,,,,,,,,,,,,,,,,,,,,,,,765483,001,2023-11-06_14h28.58.183,Selektive Wahrnehmung,2023.2.3,60.04365173473507,2023-11-06 14h29.08.467881 +0100,
person2,4,1,65,5,,,,,355.90457380000043,,,,,,,,,,355.85370590000093,355.90457380000043,357.9192105000002,358.8847430000005,3.0319041999991896,359.65476690000105,"[300, -300]",[0.2324074074074074],[-0.1648148148148148],[1],[0],[0],[0.769241999998485],[1],['target_find'],359.6552380000012,360.67046890000165,,,,,,,,,,,,,,,,,,,,,,,,,,,,,,,,765483,001,2023-11-06_14h28.58.183,Selektive Wahrnehmung,2023.2.3,60.04365173473507,2023-11-06 14h29.08.467881 +0100,
gesicht3,4,2,66,10,,,,,360.70428450000145,,,,,,,,,,360.67107340000075,360.70428450000145,362.7187997000001,363.7013424000015,3.030961500000558,364.33702110000013,"[300, 0]",[0.19074074074074074],[-0.000925925925925926],[1],[0],[0],[0.6349287000011827],[1],['target_find'],364.3379754000016,365.3523503000015,,,,,,,,,,,,,,,,,,,,,,,,,,,,,,,,765483,001,2023-11-06_14h28.58.183,Selektive Wahrnehmung,2023.2.3,60.04365173473507,2023-11-06 14h29.08.467881 +0100,
zug1,4,3,67,15,,,,,365.4010289000016,,,,,,,,,,365.35311080000065,365.4010289000016,367.400990600001,368.3844457000014,3.0323668000000907,369.3376171,"[0, -300]",[0.014814814814814815],[-0.23796296296296296],[1],[0],[0],[0.9521251000005577],[1],['target_find'],369.3385868000005,370.35242460000154,,,,,,,,,,,,,,,,,,,,,,,,,,,,,,,,765483,001,2023-11-06_14h28.58.183,Selektive Wahrnehmung,2023.2.3,60.04365173473507,2023-11-06 14h29.08.467881 +0100,
schiff1,4,4,68,14,,,,,370.40227159999995,,,,,,,,,,370.35310670000035,370.40227159999995,372.4187827000005,373.3851857000009,3.0328366000012466,374.3204257000016,"[300, 300]",[0.18055555555555555],[0.2777777777777778],[1],[0],[0],[0.9344294000002265],[1],['target_find'],374.32157240000015,375.3351064000017,,,,,,,,,,,,,,,,,,,,,,,,,,,,,,,,765483,001,2023-11-06_14h28.58.183,Selektive Wahrnehmung,2023.2.3,60.04365173473507,2023-11-06 14h29.08.467881 +0100,
gruppe1,4,5,69,6,,,,,375.38385410000046,,,,,,,,,,375.33575720000044,375.38385410000046,377.38391000000047,378.36720180000157,3.032181500000661,378.936337000001,"[300, 0]",[0.1824074074074074],[0.03981481481481482],[1],[0],[0],[0.5684294999991835],[1],['target_find'],378.9371013,379.95130790000076,,,,,,,,,,,,,,,,,,,,,,,,,,,,,,,,765483,001,2023-11-06_14h28.58.183,Selektive Wahrnehmung,2023.2.3,60.04365173473507,2023-11-06 14h29.08.467881 +0100,
gruppe2,4,6,70,7,,,,,379.9837385999999,,,,,,,,,,379.9518059000002,379.9837385999999,381.9845011000016,382.98377660000006,3.0325474000001122,383.95383910000055,"[300, 300]",[0.23148148148148148],[0.24814814814814815],[1],[0],[0],[0.969024600000921],[1],['target_find'],383.95509420000053,384.96880039999996,,,,,,,,,,,,,,,,,,,,,,,,,,,,,,,,765483,001,2023-11-06_14h28.58.183,Selektive Wahrnehmung,2023.2.3,60.04365173473507,2023-11-06 14h29.08.467881 +0100,
spinne2,4,7,71,1,,,,,385.1501763000015,,,,,,,,,,384.96976600000016,385.1501763000015,387.1502212000014,388.01676080000107,3.0480201999998826,389.4693027000012,"[-300, -300]",[-0.39166666666666666],[-0.20833333333333334],[1],[0],[0],[1.4518131999993784],[1],['target_find'],389.4702545,390.4842184000008,,,,,,,,,,,,,,,,,,,,,,,,,,,,,,,,765483,001,2023-11-06_14h28.58.183,Selektive Wahrnehmung,2023.2.3,60.04365173473507,2023-11-06 14h29.08.467881 +0100,
gesicht4,4,8,72,11,,,,,390.56997650000085,,,,,,,,,,390.4846398000009,390.56997650000085,392.5846579000008,393.5513254000016,3.0674066999999923,394.7343494000015,"[-300, -300]",[-0.32592592592592595],[-0.30185185185185187],[1],[0],[0],[1.1822448999992048],[1],['target_find'],394.73484050000116,395.7513381000008,,,,,,,,,,,,,,,,,,,,,,,,,,,,,,,,765483,001,2023-11-06_14h28.58.183,Selektive Wahrnehmung,2023.2.3,60.04365173473507,2023-11-06 14h29.08.467881 +0100,
gesicht2,4,9,73,9,,,,,395.8030963000001,,,,,,,,,,395.7518620999999,395.8030963000001,397.8177633000014,398.78317490000154,2.999587900001643,399.4867995000004,"[300, -300]",[0.21388888888888888],[-0.19074074074074074],[1],[0],[0],[0.7350513000001229],[1],['target_find'],399.48768160000145,400.5014680000004,,,,,,,,,,,,,,,,,,,,,,,,,,,,,,,,765483,001,2023-11-06_14h28.58.183,Selektive Wahrnehmung,2023.2.3,60.04365173473507,2023-11-06 14h29.08.467881 +0100,
spinne1,4,10,74,0,,,,,400.53593210000145,,,,,,,,,,400.502003900001,400.53593210000145,402.54960650000066,403.51597160000165,3.014561500000127,404.3015095999999,"[0, -300]",[-0.058333333333333334],[-0.19166666666666668],[1],[0],[0],[0.7848038000011002],[1],['target_find'],404.3024626000006,405.31712900000093,,,,,,,,,,,,,,,,,,,,,,,,,,,,,,,,765483,001,2023-11-06_14h28.58.183,Selektive Wahrnehmung,2023.2.3,60.04365173473507,2023-11-06 14h29.08.467881 +0100,
person1,4,11,75,4,,,,,405.3661154000001,,,,,,,,,,405.31775910000033,405.3661154000001,407.3661580000007,408.3493825000005,3.0323284000005515,408.9854701000004,"[300, 0]",[0.27870370370370373],[0.07222222222222222],[1],[0],[0],[0.6352501000001212],[1],['target_find'],408.98661340000035,410.00141150000127,,,,,,,,,,,,,,,,,,,,,,,,,,,,,,,,765483,001,2023-11-06_14h28.58.183,Selektive Wahrnehmung,2023.2.3,60.04365173473507,2023-11-06 14h29.08.467881 +0100,
auto1,4,12,76,12,,,,,410.0357246000003,,,,,,,,,,410.0019196000012,410.0357246000003,412.0504602000001,413.03224630000113,3.0309202000007645,413.8347764000009,"[-300, -300]",[-0.24537037037037038],[-0.2111111111111111],[1],[0],[0],[0.8017084999992221],[1],['target_find'],413.8358965000007,414.8496223000002,,,,,,,,,,,,,,,,,,,,,,,,,,,,,,,,765483,001,2023-11-06_14h28.58.183,Selektive Wahrnehmung,2023.2.3,60.04365173473507,2023-11-06 14h29.08.467881 +0100,
gesicht1,4,13,77,8,,,,,414.8823637000005,,,,,,,,,,414.85003010000037,414.8823637000005,416.8822676,417.8821559000007,3.032616099999359,418.73332310000114,"[0, -300]",[0.04259259259259259],[-0.17685185185185184],[1],[0],[0],[0.8506768999995984],[1],['target_find'],418.73380240000006,419.75111090000064,,,,,,,,,,,,,,,,,,,,,,,,,,,,,,,,765483,001,2023-11-06_14h28.58.183,Selektive Wahrnehmung,2023.2.3,60.04365173473507,2023-11-06 14h29.08.467881 +0100,
schlange1,4,14,78,2,,,,,419.8168052000001,,,,,,,,,,419.75172120000025,419.8168052000001,421.81674759999987,422.78189790000033,3.0308806000011828,423.9016201000013,"[-300, -300]",[-0.21481481481481482],[-0.20925925925925926],[1],[0],[0],[1.118853099998887],[1],['target_find'],423.90266470000097,424.91653829999996,,,,,,,,,,,,,,,,,,,,,,,,,,,,,,,,765483,001,2023-11-06_14h28.58.183,Selektive Wahrnehmung,2023.2.3,60.04365173473507,2023-11-06 14h29.08.467881 +0100,
flugzeug1,4,15,79,13,,,,,424.9648986000011,,,,,,,,,,424.91731750000145,424.9648986000011,426.9652356000006,427.94845820000046,3.0319810999990295,428.98417620000146,"[-300, 300]",[-0.23333333333333334],[0.32037037037037036],[1],[0],[0],[1.0349523999993835],[1],['target_find'],428.98504550000143,430.0004088000005,,,,,,,,,,,,,,,,,,,,,,,,,,,,,,,,765483,001,2023-11-06_14h28.58.183,Selektive Wahrnehmung,2023.2.3,60.04365173473507,2023-11-06 14h29.08.467881 +0100,
,,,,,0,0,0,0,433.71783700000015,,,,,,,,,,,,,,,,,,,,,,,,,,,430.0141134000005,433.00105910000093,433.001091600001,433.65095790000123,433.65229739999995,443.92291490000025,3.0,2.0,flugzeug1,,,,,,,,,,,,,,,,,,,,,,,765483,001,2023-11-06_14h28.58.183,Selektive Wahrnehmung,2023.2.3,60.04365173473507,2023-11-06 14h29.08.467881 +0100,
,,,,,1,0,1,0,443.98384460000125,,,,,,,,,,,,,,,,,,,,,,,,,,,,,,,443.9232795000007,449.6564105000016,1.0,3.0,gesicht3,,,,,,,,,,,,,,,,,,,,,,,765483,001,2023-11-06_14h28.58.183,Selektive Wahrnehmung,2023.2.3,60.04365173473507,2023-11-06 14h29.08.467881 +0100,
,,,,,2,0,2,0,449.7003800000002,,,,,,,,,,,,,,,,,,,,,,,,,,,,,,,449.65672470000027,453.93887540000105,1.0,5.0,gesicht2,,,,,,,,,,,,,,,,,,,,,,,765483,001,2023-11-06_14h28.58.183,Selektive Wahrnehmung,2023.2.3,60.04365173473507,2023-11-06 14h29.08.467881 +0100,
,,,,,3,0,3,0,454.00020740000036,,,,,,,,,,,,,,,,,,,,,,,,,,,,,,,453.9391691000001,461.0434100000002,1.0,4.0,zug1,,,,,,,,,,,,,,,,,,,,,,,765483,001,2023-11-06_14h28.58.183,Selektive Wahrnehmung,2023.2.3,60.04365173473507,2023-11-06 14h29.08.467881 +0100,
,,,,,4,0,4,0,461.09967440000037,,,,,,,,,,,,,,,,,,,,,,,,,,,,,,,461.0439056000014,466.4054982000016,2.0,3.0,schlange2,,,,,,,,,,,,,,,,,,,,,,,765483,001,2023-11-06_14h28.58.183,Selektive Wahrnehmung,2023.2.3,60.04365173473507,2023-11-06 14h29.08.467881 +0100,
,,,,,,,,,,,,,,,,,,,,,,,,,,,,,,,,,,,,,,,,,,,,,466.40985420000106,469.2844976000015, ,1.0,469.2845216000005,477.7709209000004,1.0,2.0,477.7709403000008,478.4656902000006,478.4657242000012,491.4405740000002,2.0,4.0,3.0,3.0,491.4406088000014,497.6374467000005,4.0,1.0,497.6374687000007,498.3655458000012,,,,,,,,
