Target,trials.thisRepN,trials.thisTrialN,trials.thisN,trials.thisIndex,trials_2.thisRepN,trials_2.thisTrialN,trials_2.thisN,trials_2.thisIndex,thisRow.t,notes,Data_transparency.started,key_resp_data_transp.started,Data_transparency.stopped,key_resp_data_transp.keys,key_resp_data_transp.rt,key_resp_data_transp.duration,instructions.started,instructions.stopped,trial.started,target_show.started,target_show.stopped,target_find.started,mouse.started,trial.stopped,target_position_x_y,mouse.x,mouse.y,mouse.leftButton,mouse.midButton,mouse.rightButton,mouse.time,mouse.corr,mouse.clicked_name,feedback.started,feedback.stopped,instructions_survey.started,instructions_survey.stopped,instructions_ratings.started,instructions_ratings.stopped,survey_ratings.started,survey_ratings.stopped,furcht.response,liebenswert.response,rated_image,survey_gen.started,survey_gen.stopped,age.text,gender.response,survey_games.started,survey_games.stopped,pc_frequency.response,reaction_games_frequency.response,instructions_neuro.started,instructions_neuro.stopped,survey_neuro.started,survey_neuro.stopped,neuro_1_rev.response,neuro_2.response,neuro_3.response,neuro_4_rev.response,survey_fear.started,survey_fear.stopped,specific_fear_spider.response,specific_fear_snake.response,thanks.started,thanks.stopped,participant,session,date,expName,psychopyVersion,frameRate,expStart,
,,,,,,,,,,,0.004424815260790638,0.02378238647179387,20.39483909982482,z,20.306745852163658,None,,,,,,,,,,,,,,,,,,,,,,,,,,,,,,,,,,,,,,,,,,,,,,,,,,,782594,001,2023-11-06_14h26.37.505,Selektive Wahrnehmung,2023.2.3,59.90245223967743,2023-11-06 14h27.06.455370 +0100,
,,,,,,,,,,,,,,,,,20.394865268699505,33.57662630307459,,,,,,,,,,,,,,,,,,,,,,,,,,,,,,,,,,,,,,,,,,,,,,,,,782594,001,2023-11-06_14h26.37.505,Selektive Wahrnehmung,2023.2.3,59.90245223967743,2023-11-06 14h27.06.455370 +0100,
person1,0,0,0,4,,,,,33.67289476386577,,,,,,,,,,33.588452358570066,33.67289476386577,35.67785376548818,36.57984080791357,3.003377491411811,37.39833520450338,"[-300, 0]",[-0.25462962962962965],[-0.025],[1],[0],[0],[0.8178026280947961],[1],['target_find'],37.39960667044579,38.41492314173411,,,,,,,,,,,,,,,,,,,,,,,,,,,,,,,,782594,001,2023-11-06_14h26.37.505,Selektive Wahrnehmung,2023.2.3,59.90245223967743,2023-11-06 14h27.06.455370 +0100,
gruppe2,0,1,1,7,,,,,38.77782512194972,,,,,,,,,,38.41563311466234,38.77782512194972,40.78285210575632,41.42095904941016,3.0061653298253077,43.08681381727911,"[300, -300]",[0.3333333333333333],[-0.45925925925925926],[1],[0],[0],[1.6652540215454792],[],[],43.08732268810127,44.104235176257134,,,,,,,,,,,,,,,,,,,,,,,,,,,,,,,,782594,001,2023-11-06_14h26.37.505,Selektive Wahrnehmung,2023.2.3,59.90245223967743,2023-11-06 14h27.06.455370 +0100,
spinne1,0,2,2,0,,,,,44.480763459832815,,,,,,,,,,44.105059780233205,44.480763459832815,46.48872562419274,47.11023410617781,3.006143712062112,48.058110544719966,"[0, 300]",[-0.04537037037037037],[0.26296296296296295],[1],[0],[0],[0.9471983233725041],[1],['target_find'],48.058650419969126,49.07454545092514,,,,,,,,,,,,,,,,,,,,,,,,,,,,,,,,782594,001,2023-11-06_14h26.37.505,Selektive Wahrnehmung,2023.2.3,59.90245223967743,2023-11-06 14h27.06.455370 +0100,
gruppe1,0,3,3,6,,,,,49.136687140018694,,,,,,,,,,49.07483359298385,49.136687140018694,51.14322395407726,52.077207564967466,3.0027411895516707,53.931087683648,"[-300, 300]",[-0.2972222222222222],[0.29814814814814816],[1],[0],[0],[1.8533436567649915],[1],['target_find'],53.93171374551457,54.94788298076128,,,,,,,,,,,,,,,,,,,,,,,,,,,,,,,,782594,001,2023-11-06_14h26.37.505,Selektive Wahrnehmung,2023.2.3,59.90245223967743,2023-11-06 14h27.06.455370 +0100,
schlange2,0,4,4,3,,,,,55.08240493089943,,,,,,,,,,54.94847462486905,55.08240493089943,57.082620539666095,57.953385270962826,3.005692014539818,59.653177086192954,"[300, -300]",[0.20092592592592592],[-0.25277777777777777],[1],[0],[0],[1.6990007756794512],[1],['target_find'],59.65378465918002,60.670582800736156,,,,,,,,,,,,,,,,,,,,,,,,,,,,,,,,782594,001,2023-11-06_14h26.37.505,Selektive Wahrnehmung,2023.2.3,59.90245223967743,2023-11-06 14h27.06.455370 +0100,
spinne2,0,5,5,1,,,,,61.19921083778354,,,,,,,,,,60.6713078492121,61.19921083778354,63.20528486099465,63.67574034446807,3.0053228058604873,64.80794805592268,"[300, 300]",[0.22685185185185186],[0.2351851851851852],[1],[0],[0],[1.1315432496121502],[1],['target_find'],64.80845493563538,65.8251299128151,,,,,,,,,,,,,,,,,,,,,,,,,,,,,,,,782594,001,2023-11-06_14h26.37.505,Selektive Wahrnehmung,2023.2.3,59.90245223967743,2023-11-06 14h27.06.455370 +0100,
zug1,0,6,6,15,,,,,65.92575378446054,,,,,,,,,,65.82564845474371,65.92575378446054,67.92647143738577,68.82762050695419,3.0026532962674537,70.16331226264992,"[-300, -300]",[-0.2111111111111111],[-0.19722222222222222],[1],[0],[0],[1.3350099427498208],[1],['target_find'],70.16397615560527,71.18002763091863,,,,,,,,,,,,,,,,,,,,,,,,,,,,,,,,782594,001,2023-11-06_14h26.37.505,Selektive Wahrnehmung,2023.2.3,59.90245223967743,2023-11-06 14h27.06.455370 +0100,
gesicht2,0,7,7,9,,,,,71.20967668071717,,,,,,,,,,71.1803117907566,71.20967668071717,73.21522135311898,74.18364064219531,3.003791926730628,74.88642623350097,"[0, 300]",[0.017592592592592594],[0.17962962962962964],[1],[0],[0],[0.7018856095928641],[1],['target_find'],74.88744681958633,75.90254284655384,,,,,,,,,,,,,,,,,,,,,,,,,,,,,,,,782594,001,2023-11-06_14h26.37.505,Selektive Wahrnehmung,2023.2.3,59.90245223967743,2023-11-06 14h27.06.455370 +0100,
auto1,0,8,8,12,,,,,75.94693748796453,,,,,,,,,,75.9032735839155,75.94693748796453,77.95339750206767,78.90534092496273,3.0029670383119083,80.37365198298903,"[300, -300]",[0.2175925925925926],[-0.21296296296296297],[1],[0],[0],[1.467622418418614],[1],['target_find'],80.3741725160271,81.39022285356259,,,,,,,,,,,,,,,,,,,,,,,,,,,,,,,,782594,001,2023-11-06_14h26.37.505,Selektive Wahrnehmung,2023.2.3,59.90245223967743,2023-11-06 14h27.06.455370 +0100,
schiff1,0,9,9,14,,,,,81.42073462287226,,,,,,,,,,81.39052749338953,81.42073462287226,83.4254413224171,84.39314864745393,3.0030802471355855,85.19574886641931,"[0, -300]",[0.025925925925925925],[-0.2564814814814815],[1],[0],[0],[0.8019974815306341],[1],['target_find'],85.19628390611433,86.2123294080975,,,,,,,,,,,,,,,,,,,,,,,,,,,,,,,,782594,001,2023-11-06_14h26.37.505,Selektive Wahrnehmung,2023.2.3,59.90245223967743,2023-11-06 14h27.06.455370 +0100,
flugzeug1,0,10,10,13,,,,,86.25512262819757,,,,,,,,,,86.21290768332437,86.25512262819757,88.26368639221437,89.21642825021081,3.004319286432292,90.33527788926403,"[0, -300]",[-0.012962962962962963],[-0.20555555555555555],[1],[0],[0],[1.1179539240074519],[1],['target_find'],90.33623987982901,91.35095332923629,,,,,,,,,,,,,,,,,,,,,,,,,,,,,,,,782594,001,2023-11-06_14h26.37.505,Selektive Wahrnehmung,2023.2.3,59.90245223967743,2023-11-06 14h27.06.455370 +0100,
gesicht4,0,11,11,11,,,,,91.39669424543717,,,,,,,,,,91.35157171110586,91.39669424543717,93.40225171783095,94.35365754103077,3.002866345035727,94.98806215790319,"[-300, 0]",[-0.25462962962962965],[-0.003703703703703704],[1],[0],[0],[0.633734181697946],[1],['target_find'],94.98864213979505,96.00488191722252,,,,,,,,,,,,,,,,,,,,,,,,,,,,,,,,782594,001,2023-11-06_14h26.37.505,Selektive Wahrnehmung,2023.2.3,59.90245223967743,2023-11-06 14h27.06.455370 +0100,
gesicht1,0,12,12,8,,,,,96.03407955394687,,,,,,,,,,96.00519110815912,96.03407955394687,98.03990184396753,99.0078836577377,3.003177811524438,99.76166726447445,"[-300, 300]",[-0.1648148148148148],[0.16944444444444445],[1],[0],[0],[0.752798576186251],[1],['target_find'],99.76285311268839,100.77650046492454,,,,,,,,,,,,,,,,,,,,,,,,,,,,,,,,782594,001,2023-11-06_14h26.37.505,Selektive Wahrnehmung,2023.2.3,59.90245223967743,2023-11-06 14h27.06.455370 +0100,
person2,0,13,13,5,,,,,100.80983136151917,,,,,,,,,,100.77683440251349,100.80983136151917,102.81143050727587,103.77922913892871,3.0029075894562993,104.49744270367773,"[300, 300]",[0.20833333333333334],[0.1925925925925926],[1],[0],[0],[0.7176085517603497],[1],['target_find'],104.49796039227112,105.5155455911572,,,,,,,,,,,,,,,,,,,,,,,,,,,,,,,,782594,001,2023-11-06_14h26.37.505,Selektive Wahrnehmung,2023.2.3,59.90245223967743,2023-11-06 14h27.06.455370 +0100,
gesicht3,0,14,14,10,,,,,105.56203914692924,,,,,,,,,,105.5162527196444,105.56203914692924,107.56624579342497,108.51711743026317,3.0016733857137297,109.4531934132956,"[300, 300]",[0.18518518518518517],[0.2101851851851852],[1],[0],[0],[0.9354228989595867],[1],['target_find'],109.4539045240017,110.47041736794017,,,,,,,,,,,,,,,,,,,,,,,,,,,,,,,,782594,001,2023-11-06_14h26.37.505,Selektive Wahrnehmung,2023.2.3,59.90245223967743,2023-11-06 14h27.06.455370 +0100,
schlange1,0,15,15,2,,,,,110.51356443672921,,,,,,,,,,110.47113160753543,110.51356443672921,112.52123333903182,113.47666916882918,3.0063741119283804,114.093814559963,"[300, 300]",[0.19722222222222222],[0.2212962962962963],[1],[0],[0],[0.615881605188406],[1],['target_find'],114.09570895888646,115.10834824058475,,,,,,,,,,,,,,,,,,,,,,,,,,,,,,,,782594,001,2023-11-06_14h26.37.505,Selektive Wahrnehmung,2023.2.3,59.90245223967743,2023-11-06 14h27.06.455370 +0100,
spinne1,1,0,16,0,,,,,115.15238277553362,,,,,,,,,,115.10908552016554,115.15238277553362,117.15922081608915,118.11181732305522,3.003671891245176,118.97929786066743,"[300, 300]",[0.23796296296296296],[0.21666666666666667],[1],[0],[0],[0.8666880758391926],[1],['target_find'],118.98008178911005,119.99633948652809,,,,,,,,,,,,,,,,,,,,,,,,,,,,,,,,782594,001,2023-11-06_14h26.37.505,Selektive Wahrnehmung,2023.2.3,59.90245223967743,2023-11-06 14h27.06.455370 +0100,
gesicht1,1,1,17,8,,,,,120.03956733749146,,,,,,,,,,119.99697294394537,120.03956733749146,122.04738727970835,122.99958556468118,3.003394273624508,123.63386900828846,"[0, 300]",[0.05648148148148148],[0.2074074074074074],[1],[0],[0],[0.6335549818013533],[1],['target_find'],123.63457215455492,124.65137797610623,,,,,,,,,,,,,,,,,,,,,,,,,,,,,,,,782594,001,2023-11-06_14h26.37.505,Selektive Wahrnehmung,2023.2.3,59.90245223967743,2023-11-06 14h27.06.455370 +0100,
gesicht2,1,2,18,9,,,,,124.69065375820719,,,,,,,,,,124.65212663345665,124.69065375820719,126.70188959181542,127.65463742314023,3.0033621314214543,128.77322252901104,"[0, -300]",[-0.049074074074074076],[-0.2574074074074074],[1],[0],[0],[1.1180659950550762],[1],['target_find'],128.77371063540159,129.78921569324666,,,,,,,,,,,,,,,,,,,,,,,,,,,,,,,,782594,001,2023-11-06_14h26.37.505,Selektive Wahrnehmung,2023.2.3,59.90245223967743,2023-11-06 14h27.06.455370 +0100,
person2,1,3,19,5,,,,,129.83201602445297,,,,,,,,,,129.78980705290996,129.83201602445297,131.84073651726976,132.79116186102874,3.0020411721725395,133.57704073839523,"[-300, 300]",[-0.33611111111111114],[0.24351851851851852],[1],[0],[0],[0.7852903621460428],[1],['target_find'],133.57767362692357,134.59358344898465,,,,,,,,,,,,,,,,,,,,,,,,,,,,,,,,782594,001,2023-11-06_14h26.37.505,Selektive Wahrnehmung,2023.2.3,59.90245223967743,2023-11-06 14h27.06.455370 +0100,
gruppe2,1,4,20,7,,,,,134.62705030994584,,,,,,,,,,134.59394526211145,134.62705030994584,136.6286440512613,137.597567091163,3.0041602820765547,138.3654420676594,"[300, 300]",[0.24444444444444444],[0.21666666666666667],[1],[0],[0],[0.7671197769268474],[1],['target_find'],138.36610738283707,139.38218047591545,,,,,,,,,,,,,,,,,,,,,,,,,,,,,,,,782594,001,2023-11-06_14h26.37.505,Selektive Wahrnehmung,2023.2.3,59.90245223967743,2023-11-06 14h27.06.455370 +0100,
gruppe1,1,5,21,6,,,,,139.42272772396063,,,,,,,,,,139.38276671558197,139.42272772396063,141.43322286465627,142.387898090441,3.0058749122126756,143.2875120142162,"[300, 300]",[0.21944444444444444],[0.20092592592592592],[1],[0],[0],[0.8988817641911737],[1],['target_find'],143.2882131693732,144.30389685822774,,,,,,,,,,,,,,,,,,,,,,,,,,,,,,,,782594,001,2023-11-06_14h26.37.505,Selektive Wahrnehmung,2023.2.3,59.90245223967743,2023-11-06 14h27.06.455370 +0100,
schlange2,1,6,22,3,,,,,144.34760854891647,,,,,,,,,,144.3045573378531,144.34760854891647,146.3549807758336,147.30617781693036,3.0024206208454416,148.49349120370425,"[-300, 300]",[-0.21944444444444444],[0.17962962962962964],[1],[0],[0],[1.186746204873998],[1],['target_find'],148.49401458118336,149.50882331942557,,,,,,,,,,,,,,,,,,,,,,,,,,,,,,,,782594,001,2023-11-06_14h26.37.505,Selektive Wahrnehmung,2023.2.3,59.90245223967743,2023-11-06 14h27.06.455370 +0100,
spinne2,1,7,23,1,,,,,149.69698861682446,,,,,,,,,,149.5094069990937,149.69698861682446,151.71024628039413,152.51435007183682,3.005724441189159,153.64733004951995,"[0, -300]",[-0.030555555555555555],[-0.2064814814814815],[1],[0],[0],[1.1321781292499509],[1],['target_find'],153.6480843957579,154.6643716753806,,,,,,,,,,,,,,,,,,,,,,,,,,,,,,,,782594,001,2023-11-06_14h26.37.505,Selektive Wahrnehmung,2023.2.3,59.90245223967743,2023-11-06 14h27.06.455370 +0100,
gesicht3,1,8,24,10,,,,,154.70761431744722,,,,,,,,,,154.66508563052957,154.70761431744722,156.71598409046237,157.66609256328957,3.0017763545456546,158.26791863869585,"[-300, 300]",[-0.25833333333333336],[0.25833333333333336],[1],[0],[0],[0.6013354090191569],[1],['target_find'],158.2683930917592,159.2850774556009,,,,,,,,,,,,,,,,,,,,,,,,,,,,,,,,782594,001,2023-11-06_14h26.37.505,Selektive Wahrnehmung,2023.2.3,59.90245223967743,2023-11-06 14h27.06.455370 +0100,
gesicht4,1,9,25,11,,,,,159.3127592887413,,,,,,,,,,159.285369864323,159.3127592887413,161.3196920492428,162.28806127612552,3.003160744869092,163.10659833935824,"[0, 300]",[-0.05648148148148148],[0.17685185185185184],[1],[0],[0],[0.8177912503215339],[1],['target_find'],163.10727929897075,164.1234052986856,,,,,,,,,,,,,,,,,,,,,,,,,,,,,,,,782594,001,2023-11-06_14h26.37.505,Selektive Wahrnehmung,2023.2.3,59.90245223967743,2023-11-06 14h27.06.455370 +0100,
flugzeug1,1,10,26,13,,,,,164.16559635023987,,,,,,,,,,164.1239514317076,164.16559635023987,166.17478532278983,167.1253218842612,3.0019828610929835,167.76140159351417,"[-300, 300]",[-0.18333333333333332],[0.2074074074074074],[1],[0],[0],[0.63544682072461],[1],['target_find'],167.7621309086553,168.77767095314812,,,,,,,,,,,,,,,,,,,,,,,,,,,,,,,,782594,001,2023-11-06_14h26.37.505,Selektive Wahrnehmung,2023.2.3,59.90245223967743,2023-11-06 14h27.06.455370 +0100,
schlange1,1,11,27,2,,,,,168.8108087120745,,,,,,,,,,168.77801911294955,168.8108087120745,170.8127218843183,171.78091418685835,3.003422433608648,173.3167005487212,"[300, 0]",[0.19166666666666668],[0.022222222222222223],[1],[0],[0],[1.5350968689235742],[1],['target_find'],173.31735505501638,174.33406160551203,,,,,,,,,,,,,,,,,,,,,,,,,,,,,,,,782594,001,2023-11-06_14h26.37.505,Selektive Wahrnehmung,2023.2.3,59.90245223967743,2023-11-06 14h27.06.455370 +0100,
person1,1,12,28,4,,,,,174.37101916671054,,,,,,,,,,174.33478181843566,174.37101916671054,176.38497343432755,177.34019877535502,3.006279391982389,178.07086474190874,"[-300, 300]",[-0.14722222222222223],[0.17962962962962964],[1],[0],[0],[0.7301081713176245],[1],['target_find'],178.0713366349737,179.08818227872325,,,,,,,,,,,,,,,,,,,,,,,,,,,,,,,,782594,001,2023-11-06_14h26.37.505,Selektive Wahrnehmung,2023.2.3,59.90245223967743,2023-11-06 14h27.06.455370 +0100,
auto1,1,13,29,12,,,,,179.1293672508491,,,,,,,,,,179.08865758512002,179.1293672508491,181.1396558849956,182.09026042865298,3.002149829888367,182.77690750469264,"[0, 300]",[0.011111111111111112],[0.1787037037037037],[1],[0],[0],[0.6861814407511702],[1],['target_find'],182.77743031328464,183.79248338916477,,,,,,,,,,,,,,,,,,,,,,,,,,,,,,,,782594,001,2023-11-06_14h26.37.505,Selektive Wahrnehmung,2023.2.3,59.90245223967743,2023-11-06 14h27.06.455370 +0100,
zug1,1,14,30,15,,,,,183.8237386958299,,,,,,,,,,183.7927965623203,183.8237386958299,185.82787138681124,186.79498735218476,3.0025838918627414,187.6485491777148,"[-300, -300]",[-0.19537037037037036],[-0.20833333333333334],[1],[0],[0],[0.8529531147632952],[1],['target_find'],187.64925260842574,188.66507027053922,,,,,,,,,,,,,,,,,,,,,,,,,,,,,,,,782594,001,2023-11-06_14h26.37.505,Selektive Wahrnehmung,2023.2.3,59.90245223967743,2023-11-06 14h27.06.455370 +0100,
schiff1,1,15,31,14,,,,,188.70451103032246,,,,,,,,,,188.6657933279057,188.70451103032246,190.71578270391,191.6673028737132,3.002387340864516,193.38679416217929,"[300, -300]",[0.3638888888888889],[-0.28888888888888886],[1],[0],[0],[1.7187767644281848],[1],['target_find'],193.38747369957127,194.40410060566865,,,,,,,,,,,,,,,,,,,,,,,,,,,,,,,,782594,001,2023-11-06_14h26.37.505,Selektive Wahrnehmung,2023.2.3,59.90245223967743,2023-11-06 14h27.06.455370 +0100,
schiff1,2,0,32,14,,,,,194.4505637259026,,,,,,,,,,194.40487116523036,194.4505637259026,196.45501840781253,197.40599130681403,3.0020417410596565,197.95881076121077,"[300, -300]",[0.3055555555555556],[-0.2962962962962963],[1],[0],[0],[0.5520634014937968],[1],['target_find'],197.9595258541376,198.97485740097,,,,,,,,,,,,,,,,,,,,,,,,,,,,,,,,782594,001,2023-11-06_14h26.37.505,Selektive Wahrnehmung,2023.2.3,59.90245223967743,2023-11-06 14h27.06.455370 +0100,
auto1,2,1,33,12,,,,,199.021391347831,,,,,,,,,,198.97539841399703,199.021391347831,201.026251931733,201.97727631515045,3.002574789647042,202.8628278824799,"[-300, -300]",[-0.2574074074074074],[-0.2824074074074074],[1],[0],[0],[0.884873167715341],[1],['target_find'],202.86329835332435,203.88033741918662,,,,,,,,,,,,,,,,,,,,,,,,,,,,,,,,782594,001,2023-11-06_14h26.37.505,Selektive Wahrnehmung,2023.2.3,59.90245223967743,2023-11-06 14h27.06.455370 +0100,
flugzeug1,2,2,34,13,,,,,203.91954550354785,,,,,,,,,,203.88106445877202,203.91954550354785,205.931095363645,206.883787159446,3.0036499890338746,208.5019665055479,"[-300, 300]",[-0.20555555555555555],[0.1537037037037037],[1],[0],[0],[1.6173683954530134],[1],['target_find'],208.50265116293667,209.5188386026166,,,,,,,,,,,,,,,,,,,,,,,,,,,,,,,,782594,001,2023-11-06_14h26.37.505,Selektive Wahrnehmung,2023.2.3,59.90245223967743,2023-11-06 14h27.06.455370 +0100,
person2,2,3,35,5,,,,,209.5612745606977,,,,,,,,,,209.5194140334006,209.5612745606977,211.5699080135637,212.5212236679272,3.0025554474359524,213.2082021215574,"[-300, 0]",[-0.19722222222222222],[0.05277777777777778],[1],[0],[0],[0.6859749342002033],[1],['target_find'],213.20936521422846,214.22348730397243,,,,,,,,,,,,,,,,,,,,,,,,,,,,,,,,782594,001,2023-11-06_14h26.37.505,Selektive Wahrnehmung,2023.2.3,59.90245223967743,2023-11-06 14h27.06.455370 +0100,
gesicht3,2,4,36,10,,,,,214.26554864893296,,,,,,,,,,214.22409032585165,214.26554864893296,216.27491454582741,217.22725818182698,3.003964299967265,217.84438223964025,"[0, 300]",[-0.03333333333333333],[0.17037037037037037],[1],[0],[0],[0.6163745471294533],[1],['target_find'],217.84497103930516,218.8618419985978,,,,,,,,,,,,,,,,,,,,,,,,,,,,,,,,782594,001,2023-11-06_14h26.37.505,Selektive Wahrnehmung,2023.2.3,59.90245223967743,2023-11-06 14h27.06.455370 +0100,
gesicht4,2,5,37,11,,,,,218.9076932791795,,,,,,,,,,218.86260658482934,218.9076932791795,220.91260250305277,221.86359161537985,3.0018796078184096,222.85069604938326,"[-300, -300]",[-0.33055555555555555],[-0.2722222222222222],[1],[0],[0],[0.9863532166509685],[1],['target_find'],222.85163158662726,223.86657628923786,,,,,,,,,,,,,,,,,,,,,,,,,,,,,,,,782594,001,2023-11-06_14h26.37.505,Selektive Wahrnehmung,2023.2.3,59.90245223967743,2023-11-06 14h27.06.455370 +0100,
schlange2,2,6,38,3,,,,,223.89900919523097,,,,,,,,,,223.86716082223757,223.89900919523097,225.9009198074782,226.8685821903182,3.002133901007255,228.22176499384113,"[300, -300]",[0.24722222222222223],[-0.22407407407407406],[1],[0],[0],[1.3524694172629097],[1],['target_find'],228.22247354454885,229.2384035621526,,,,,,,,,,,,,,,,,,,,,,,,,,,,,,,,782594,001,2023-11-06_14h26.37.505,Selektive Wahrnehmung,2023.2.3,59.90245223967743,2023-11-06 14h27.06.455370 +0100,
zug1,2,7,39,15,,,,,229.28310255894758,,,,,,,,,,229.23896960627644,229.28310255894758,231.28967208409813,232.24339413709276,3.005221259252721,232.94318282343374,"[-300, 0]",[-0.17962962962962964],[-0.0712962962962963],[1],[0],[0],[0.6990098778969696],[1],['target_find'],232.94380945418925,233.95968542738046,,,,,,,,,,,,,,,,,,,,,,,,,,,,,,,,782594,001,2023-11-06_14h26.37.505,Selektive Wahrnehmung,2023.2.3,59.90245223967743,2023-11-06 14h27.06.455370 +0100,
gruppe2,2,8,40,7,,,,,233.99984497786681,,,,,,,,,,233.96018405820723,233.99984497786681,236.01108593147183,236.9626345457018,3.0030193760594557,238.24784057011857,"[-300, 300]",[-0.23333333333333334],[0.16574074074074074],[1],[0],[0],[1.2846749669406563],[1],['target_find'],238.24836679204054,239.2652659113155,,,,,,,,,,,,,,,,,,,,,,,,,,,,,,,,782594,001,2023-11-06_14h26.37.505,Selektive Wahrnehmung,2023.2.3,59.90245223967743,2023-11-06 14h27.06.455370 +0100,
gesicht1,2,9,41,8,,,,,239.30160850397442,,,,,,,,,,239.26584219543292,239.30160850397442,241.31646645107685,242.26928510902871,3.0041614198544266,243.203843581814,"[0, -300]",[-0.05092592592592592],[-0.18611111111111112],[1],[0],[0],[0.9336968910520227],[1],['target_find'],243.2048715634519,244.2201325681035,,,,,,,,,,,,,,,,,,,,,,,,,,,,,,,,782594,001,2023-11-06_14h26.37.505,Selektive Wahrnehmung,2023.2.3,59.90245223967743,2023-11-06 14h27.06.455370 +0100,
person1,2,10,42,4,,,,,244.26069318502778,,,,,,,,,,244.22065566113815,244.26069318502778,246.27143949002675,247.22208499365843,3.00203519884235,247.99183474242272,"[300, 0]",[0.2574074074074074],[-0.012037037037037037],[1],[0],[0],[0.7690909758057387],[1],['target_find'],247.99259847532267,249.00840077744397,,,,,,,,,,,,,,,,,,,,,,,,,,,,,,,,782594,001,2023-11-06_14h26.37.505,Selektive Wahrnehmung,2023.2.3,59.90245223967743,2023-11-06 14h27.06.455370 +0100,
gruppe1,2,11,43,6,,,,,249.05293621877536,,,,,,,,,,249.00912411925492,249.05293621877536,251.05951200170057,252.0147518493868,3.0064904496412055,252.74544796703412,"[0, 300]",[0.008333333333333333],[0.2324074074074074],[1],[0],[0],[0.7300800113334844],[1],['target_find'],252.74599239339113,253.76327494355974,,,,,,,,,,,,,,,,,,,,,,,,,,,,,,,,782594,001,2023-11-06_14h26.37.505,Selektive Wahrnehmung,2023.2.3,59.90245223967743,2023-11-06 14h27.06.455370 +0100,
gesicht2,2,12,44,9,,,,,253.80875274879872,,,,,,,,,,253.7639823564914,253.80875274879872,255.81413073685144,256.76625535075254,3.0030540782627213,257.56767427261184,"[-300, -300]",[-0.17777777777777778],[-0.2064814814814815],[1],[0],[0],[0.8008053755420406],[1],['target_find'],257.5683705922165,258.58453214746623,,,,,,,,,,,,,,,,,,,,,,,,,,,,,,,,782594,001,2023-11-06_14h26.37.505,Selektive Wahrnehmung,2023.2.3,59.90245223967743,2023-11-06 14h27.06.455370 +0100,
spinne2,2,13,45,1,,,,,258.76234338853465,,,,,,,,,,258.585133178236,258.76234338853465,260.76922921572805,261.58962853567937,3.0052761569986615,262.3551056468732,"[0, -300]",[-0.030555555555555555],[-0.20833333333333334],[1],[0],[0],[0.7648098049066903],[1],['target_find'],262.3556443843445,263.3721979038164,,,,,,,,,,,,,,,,,,,,,,,,,,,,,,,,782594,001,2023-11-06_14h26.37.505,Selektive Wahrnehmung,2023.2.3,59.90245223967743,2023-11-06 14h27.06.455370 +0100,
spinne1,2,14,46,0,,,,,263.40062754097744,,,,,,,,,,263.37245646367046,263.40062754097744,265.40689327963446,266.3747758223508,3.00273834510881,267.39384382928074,"[0, -300]",[-0.005555555555555556],[-0.2037037037037037],[1],[0],[0],[1.0183432428984815],[1],['target_find'],267.39444343782816,268.41130614823487,,,,,,,,,,,,,,,,,,,,,,,,,,,,,,,,782594,001,2023-11-06_14h26.37.505,Selektive Wahrnehmung,2023.2.3,59.90245223967743,2023-11-06 14h27.06.455370 +0100,
schlange1,2,15,47,2,,,,,268.45650178474716,,,,,,,,,,268.41201356116653,268.45650178474716,270.4621508481996,271.41369377354386,3.0025386652214365,272.3999249635981,"[300, 0]",[0.19537037037037036],[-0.06759259259259259],[1],[0],[0],[0.9853240972370259],[1],['target_find'],272.4009353096899,273.4160063055606,,,,,,,,,,,,,,,,,,,,,,,,,,,,,,,,782594,001,2023-11-06_14h26.37.505,Selektive Wahrnehmung,2023.2.3,59.90245223967743,2023-11-06 14h27.06.455370 +0100,
auto1,3,0,48,12,,,,,273.45865645018785,,,,,,,,,,273.41659055411765,273.45865645018785,275.467254347519,276.41908456158853,3.003236122602175,277.437293262341,"[-300, 300]",[-0.26851851851851855],[0.20277777777777778],[1],[0],[0],[1.0174782478352427],[1],['target_find'],277.43790396421537,278.45420745716183,,,,,,,,,,,,,,,,,,,,,,,,,,,,,,,,782594,001,2023-11-06_14h26.37.505,Selektive Wahrnehmung,2023.2.3,59.90245223967743,2023-11-06 14h27.06.455370 +0100,
person1,3,1,49,4,,,,,278.48535040833485,,,,,,,,,,278.45477293239674,278.48535040833485,280.4889002729815,281.45986533838914,3.005779338935099,282.0753592460187,"[-300, 300]",[-0.18888888888888888],[0.19537037037037036],[1],[0],[0],[0.6147301747314486],[1],['target_find'],282.0761224100279,283.0924802318332,,,,,,,,,,,,,,,,,,,,,,,,,,,,,,,,782594,001,2023-11-06_14h26.37.505,Selektive Wahrnehmung,2023.2.3,59.90245223967743,2023-11-06 14h27.06.455370 +0100,
gruppe1,3,2,50,6,,,,,283.1314289030106,,,,,,,,,,283.0931068625887,283.1314289030106,285.1437163271312,286.0945418839947,3.002211269853433,286.7811565333868,"[300, -300]",[0.22407407407407406],[-0.2657407407407407],[1],[0],[0],[0.6860488897145842],[1],['target_find'],286.78167223087075,287.7962579647956,,,,,,,,,,,,,,,,,,,,,,,,,,,,,,,,782594,001,2023-11-06_14h26.37.505,Selektive Wahrnehmung,2023.2.3,59.90245223967743,2023-11-06 14h27.06.455370 +0100,
gruppe2,3,3,51,7,,,,,287.8239790512489,,,,,,,,,,287.79653984907964,287.8239790512489,289.8314468514436,290.802502939021,3.0063741119301994,291.6344498435137,"[-300, 0]",[-0.18703703703703703],[-0.09074074074074075],[1],[0],[0],[0.8313185670722305],[1],['target_find'],291.63505940761206,292.6521621889933,,,,,,,,,,,,,,,,,,,,,,,,,,,,,,,,782594,001,2023-11-06_14h26.37.505,Selektive Wahrnehmung,2023.2.3,59.90245223967743,2023-11-06 14h27.06.455370 +0100,
schiff1,3,4,52,14,,,,,292.70201560063106,,,,,,,,,,292.6528693174787,292.70201560063106,294.703232453272,295.654047201253,3.002016709964664,296.80770883828154,"[300, 300]",[0.18425925925925926],[0.2722222222222222],[1],[0],[0],[1.1527915219667193],[1],['target_find'],296.80875929101785,297.8236684380918,,,,,,,,,,,,,,,,,,,,,,,,,,,,,,,,782594,001,2023-11-06_14h26.37.505,Selektive Wahrnehmung,2023.2.3,59.90245223967743,2023-11-06 14h27.06.455370 +0100,
schlange2,3,5,53,3,,,,,297.86661298254876,,,,,,,,,,297.82425410886935,297.86661298254876,299.87497905778946,300.82566722806587,3.002106594356519,302.16151941033604,"[300, -300]",[0.1787037037037037],[-0.2518518518518518],[1],[0],[0],[1.3352656581610063],[1],['target_find'],302.16205501892,303.17938649350435,,,,,,,,,,,,,,,,,,,,,,,,,,,,,,,,782594,001,2023-11-06_14h26.37.505,Selektive Wahrnehmung,2023.2.3,59.90245223967743,2023-11-06 14h27.06.455370 +0100,
flugzeug1,3,6,54,13,,,,,303.2182401602913,,,,,,,,,,303.1801092664282,303.2182401602913,305.2303614689499,306.18379111322247,3.004537170752883,307.5846095163124,"[300, 300]",[0.21388888888888888],[0.26481481481481484],[1],[0],[0],[1.4001815323408664],[1],['target_find'],307.5852335870677,308.60099521365737,,,,,,,,,,,,,,,,,,,,,,,,,,,,,,,,782594,001,2023-11-06_14h26.37.505,Selektive Wahrnehmung,2023.2.3,59.90245223967743,2023-11-06 14h27.06.455370 +0100,
gesicht2,3,7,55,9,,,,,308.6376040461637,,,,,,,,,,308.6014642622795,308.6376040461637,310.6523283044535,311.60393067865334,3.0030984515706223,312.3574193166696,"[300, -300]",[0.24351851851851852],[-0.337037037037037],[1],[0],[0],[0.7526361585005361],[1],['target_find'],312.3583969516676,313.3723256193007,,,,,,,,,,,,,,,,,,,,,,,,,,,,,,,,782594,001,2023-11-06_14h26.37.505,Selektive Wahrnehmung,2023.2.3,59.90245223967743,2023-11-06 14h27.06.455370 +0100,
spinne1,3,8,56,0,,,,,313.4133623959551,,,,,,,,,,313.37281998346225,313.4133623959551,315.4236584256523,316.3749698133506,3.0027986472978228,317.37742001640254,"[300, 0]",[0.2111111111111111],[-0.012037037037037037],[1],[0],[0],[1.0017160523566417],[1],['target_find'],317.3781521759847,318.3940870291426,,,,,,,,,,,,,,,,,,,,,,,,,,,,,,,,782594,001,2023-11-06_14h26.37.505,Selektive Wahrnehmung,2023.2.3,59.90245223967743,2023-11-06 14h27.06.455370 +0100,
schlange1,3,9,57,2,,,,,318.43437059733697,,,,,,,,,,318.3945987444058,318.43437059733697,320.44546506213555,321.3995631504713,3.005632850128677,322.06532803394657,"[300, 0]",[0.18796296296296297],[-0.024074074074074074],[1],[0],[0],[0.6650583238770196],[1],['target_find'],322.065976851356,323.0823045220677,,,,,,,,,,,,,,,,,,,,,,,,,,,,,,,,782594,001,2023-11-06_14h26.37.505,Selektive Wahrnehmung,2023.2.3,59.90245223967743,2023-11-06 14h27.06.455370 +0100,
gesicht1,3,10,58,8,,,,,323.1206527313625,,,,,,,,,,323.08287739285333,323.1206527313625,325.13351444849104,326.0855480402224,3.0034184513879154,326.73707250513326,"[300, 0]",[0.2759259259259259],[-0.05648148148148148],[1],[0],[0],[0.6506944564935111],[1],['target_find'],326.7379047891045,327.75401087771934,,,,,,,,,,,,,,,,,,,,,,,,,,,,,,,,782594,001,2023-11-06_14h26.37.505,Selektive Wahrnehmung,2023.2.3,59.90245223967743,2023-11-06 14h27.06.455370 +0100,
gesicht3,3,11,59,10,,,,,327.7965392801907,,,,,,,,,,327.7547282462001,327.7965392801907,329.8047830443902,330.75670627174077,3.002882842805775,331.2919282961484,"[300, 0]",[0.17407407407407408],[-0.07685185185185185],[1],[0],[0],[0.5342745405014284],[1],['target_find'],331.29294404668144,332.30808444695685,,,,,,,,,,,,,,,,,,,,,,,,,,,,,,,,782594,001,2023-11-06_14h26.37.505,Selektive Wahrnehmung,2023.2.3,59.90245223967743,2023-11-06 14h27.06.455370 +0100,
gesicht4,3,12,60,11,,,,,332.3492560502018,,,,,,,,,,332.30862972664727,332.3492560502018,334.3593034755977,335.31046126338333,3.002549189661295,336.39898544413336,"[0, -300]",[0.10555555555555556],[-0.2564814814814815],[1],[0],[0],[1.0872072037218459],[1],['target_find'],336.4010098340932,337.41347361366934,,,,,,,,,,,,,,,,,,,,,,,,,,,,,,,,782594,001,2023-11-06_14h26.37.505,Selektive Wahrnehmung,2023.2.3,59.90245223967743,2023-11-06 14h27.06.455370 +0100,
spinne2,3,13,61,1,,,,,337.6034118522821,,,,,,,,,,337.4141793199342,337.6034118522821,339.61455922371715,340.4203312808786,3.0069722982570966,341.1845289616904,"[300, 0]",[0.21203703703703702],[-0.041666666666666664],[1],[0],[0],[0.7635329345230275],[1],['target_find'],341.1852582768315,342.20162747640825,,,,,,,,,,,,,,,,,,,,,,,,,,,,,,,,782594,001,2023-11-06_14h26.37.505,Selektive Wahrnehmung,2023.2.3,59.90245223967743,2023-11-06 14h27.06.455370 +0100,
zug1,3,14,62,15,,,,,342.24705493500915,,,,,,,,,,342.2023451293335,342.24705493500915,344.2523845675332,345.2037531285314,3.0022721409295627,346.09067969952594,"[0, -300]",[0.028703703703703703],[-0.2212962962962963],[1],[0],[0],[0.8859386959993572],[1],['target_find'],346.0918416544191,347.10624221511534,,,,,,,,,,,,,,,,,,,,,,,,,,,,,,,,782594,001,2023-11-06_14h26.37.505,Selektive Wahrnehmung,2023.2.3,59.90245223967743,2023-11-06 14h27.06.455370 +0100,
person2,3,15,63,5,,,,,347.1473478272874,,,,,,,,,,347.10678095258663,347.1473478272874,349.15734945715303,350.10839773388943,3.002297172026374,350.78006056956656,"[-300, 0]",[-0.19814814814814816],[-0.014814814814814815],[1],[0],[0],[0.6703964897296828],[1],['target_find'],350.781989386247,351.79421764595645,,,,,,,,,,,,,,,,,,,,,,,,,,,,,,,,782594,001,2023-11-06_14h26.37.505,Selektive Wahrnehmung,2023.2.3,59.90245223967743,2023-11-06 14h27.06.455370 +0100,
spinne1,4,0,64,0,,,,,351.8375507413057,,,,,,,,,,351.7948055922898,351.8375507413057,353.8454742212416,354.7976298395715,3.0035800157420454,356.0498187094363,"[-300, -300]",[-0.15925925925925927],[-0.19074074074074074],[1],[0],[0],[1.251372230330162],[1],['target_find'],356.05064587341076,357.0659723002482,,,,,,,,,,,,,,,,,,,,,,,,,,,,,,,,782594,001,2023-11-06_14h26.37.505,Selektive Wahrnehmung,2023.2.3,59.90245223967743,2023-11-06 14h27.06.455370 +0100,
spinne2,4,1,65,1,,,,,357.250388622002,,,,,,,,,,357.0664530110844,357.250388622002,359.2508030573208,360.07033283110104,3.004509295211392,361.5054452591248,"[-300, -300]",[-0.19074074074074074],[-0.2657407407407407],[1],[0],[0],[1.4342451574066217],[1],['target_find'],361.5064081030214,362.521907756427,,,,,,,,,,,,,,,,,,,,,,,,,,,,,,,,782594,001,2023-11-06_14h26.37.505,Selektive Wahrnehmung,2023.2.3,59.90245223967743,2023-11-06 14h27.06.455370 +0100,
gesicht2,4,2,66,9,,,,,362.5672441928564,,,,,,,,,,362.5226458893394,362.5672441928564,364.5727848830393,365.5240530352057,3.002252514274005,366.42558326011385,"[0, 300]",[0.032407407407407406],[0.33055555555555555],[1],[0],[0],[0.9008853897194058],[1],['target_find'],366.4260579976217,367.44266157928723,,,,,,,,,,,,,,,,,,,,,,,,,,,,,,,,782594,001,2023-11-06_14h26.37.505,Selektive Wahrnehmung,2023.2.3,59.90245223967743,2023-11-06 14h27.06.455370 +0100,
schiff1,4,3,67,14,,,,,367.4805993354821,,,,,,,,,,367.44299893020616,367.4805993354821,369.49429191435956,370.4453825732944,3.00286577614861,371.38113087651254,"[-300, 0]",[-0.27037037037037037],[0.08148148148148149],[1],[0],[0],[0.9350371925120271],[1],['target_find'],371.3817233739537,372.39782348923836,,,,,,,,,,,,,,,,,,,,,,,,,,,,,,,,782594,001,2023-11-06_14h26.37.505,Selektive Wahrnehmung,2023.2.3,59.90245223967743,2023-11-06 14h27.06.455370 +0100,
gruppe1,4,4,68,6,,,,,372.43962286101487,,,,,,,,,,372.3982854267542,372.43962286101487,374.44928514885214,375.40153634045964,3.0038869311229064,376.0703715155232,"[-300, 0]",[-0.2518518518518518],[0.049074074074074076],[1],[0],[0],[0.6679334866876161],[1],['target_find'],376.0713901104991,377.085902742243,,,,,,,,,,,,,,,,,,,,,,,,,,,,,,,,782594,001,2023-11-06_14h26.37.505,Selektive Wahrnehmung,2023.2.3,59.90245223967743,2023-11-06 14h27.06.455370 +0100,
schlange2,4,5,69,3,,,,,377.1284860424621,,,,,,,,,,377.0863783330824,377.1284860424621,379.1374759040136,380.0901196287323,3.0044228241513338,381.09103127265917,"[300, 0]",[0.1638888888888889],[0.05648148148148148],[1],[0],[0],[1.0001353954794467],[1],['target_find'],381.09176769890655,382.10769401873404,,,,,,,,,,,,,,,,,,,,,,,,,,,,,,,,782594,001,2023-11-06_14h26.37.505,Selektive Wahrnehmung,2023.2.3,59.90245223967743,2023-11-06 14h27.06.455370 +0100,
person1,4,6,70,4,,,,,382.1543608010761,,,,,,,,,,382.10825778730214,382.1543608010761,384.1588683896225,385.1096563998399,3.00202182996145,386.1467536231812,"[300, 0]",[0.23333333333333334],[0.028703703703703703],[1],[0],[0],[1.0364785570254753],[1],['target_find'],386.1474900494286,387.1628341118103,,,,,,,,,,,,,,,,,,,,,,,,,,,,,,,,782594,001,2023-11-06_14h26.37.505,Selektive Wahrnehmung,2023.2.3,59.90245223967743,2023-11-06 14h27.06.455370 +0100,
gesicht1,4,7,71,8,,,,,387.20060546810055,,,,,,,,,,387.163416938145,387.20060546810055,389.2141347759589,390.1660107855587,3.003364406975379,390.8341376943572,"[300, 0]",[0.1925925925925926],[0.007407407407407408],[1],[0],[0],[0.6674507847401401],[1],['target_find'],390.83469918737137,391.85088719594023,,,,,,,,,,,,,,,,,,,,,,,,,,,,,,,,782594,001,2023-11-06_14h26.37.505,Selektive Wahrnehmung,2023.2.3,59.90245223967743,2023-11-06 14h27.06.455370 +0100,
gesicht4,4,8,72,11,,,,,391.89505797970014,,,,,,,,,,391.85146348005765,391.89505797970014,393.9022800200364,394.8531482435428,3.002355198659643,395.83837107861655,"[-300, -300]",[-0.23333333333333334],[-0.225],[1],[0],[0],[0.9846257865247026],[1],['target_find'],395.8388950249846,396.85597704193424,,,,,,,,,,,,,,,,,,,,,,,,,,,,,,,,782594,001,2023-11-06_14h26.37.505,Selektive Wahrnehmung,2023.2.3,59.90245223967743,2023-11-06 14h27.06.455370 +0100,
flugzeug1,4,9,73,13,,,,,396.90403817014703,,,,,,,,,,396.856705503742,396.90403817014703,398.90717274614144,399.85777359202257,3.0018790389312926,400.5267757358797,"[300, 0]",[0.1398148148148148],[-0.014814814814814815],[1],[0],[0],[0.6683499131158896],[1],['target_find'],400.52744218883345,401.5440341082831,,,,,,,,,,,,,,,,,,,,,,,,,,,,,,,,782594,001,2023-11-06_14h26.37.505,Selektive Wahrnehmung,2023.2.3,59.90245223967743,2023-11-06 14h27.06.455370 +0100,
gesicht3,4,10,74,10,,,,,401.5770836894826,,,,,,,,,,401.54466756570037,401.5770836894826,403.5784712086934,404.546664364565,3.0027858473040396,405.815881775854,"[300, -300]",[0.17592592592592593],[-0.18611111111111112],[1],[0],[0],[1.2684704606035666],[1],['target_find'],405.8166557487475,406.83189741118804,,,,,,,,,,,,,,,,,,,,,,,,,,,,,,,,782594,001,2023-11-06_14h26.37.505,Selektive Wahrnehmung,2023.2.3,59.90245223967743,2023-11-06 14h27.06.455370 +0100,
person2,4,11,75,5,,,,,406.86648327595685,,,,,,,,,,406.832252966542,406.86648327595685,408.86679588022344,409.83437264533495,3.0025398029993084,411.238121962313,"[-300, -300]",[-0.18703703703703703],[-0.17407407407407408],[1],[0],[0],[1.4030595395925047],[1],['target_find'],411.238969321832,412.2547548417406,,,,,,,,,,,,,,,,,,,,,,,,,,,,,,,,782594,001,2023-11-06_14h26.37.505,Selektive Wahrnehmung,2023.2.3,59.90245223967743,2023-11-06 14h27.06.455370 +0100,
auto1,4,12,76,12,,,,,412.28831585375883,,,,,,,,,,412.2554062191466,412.28831585375883,414.2890733288841,415.25667085842724,3.0020568166073645,416.04168587850836,"[-300, 0]",[-0.19537037037037036],[-0.03981481481481482],[1],[0],[0],[0.7844068782032991],[1],['target_find'],416.04219702488444,417.05934389512913,,,,,,,,,,,,,,,,,,,,,,,,,,,,,,,,782594,001,2023-11-06_14h26.37.505,Selektive Wahrnehmung,2023.2.3,59.90245223967743,2023-11-06 14h27.06.455370 +0100,
zug1,4,13,77,15,,,,,417.1010172580882,,,,,,,,,,417.05994350367655,417.1010172580882,419.1106806837015,420.0665977932258,3.007446751318639,421.11505230788134,"[300, -300]",[0.18333333333333332],[-0.2],[1],[0],[0],[1.0476731462131283],[1],['target_find'],421.11586837852883,422.1317019695216,,,,,,,,,,,,,,,,,,,,,,,,,,,,,,,,782594,001,2023-11-06_14h26.37.505,Selektive Wahrnehmung,2023.2.3,59.90245223967743,2023-11-06 14h27.06.455370 +0100,
schlange1,4,14,78,2,,,,,422.17226969755393,,,,,,,,,,422.132458306869,422.17226969755393,424.1822235407799,425.13336767524015,3.0018372256199655,425.95375049742324,"[-300, 300]",[-0.3814814814814815],[0.28425925925925927],[1],[0],[0],[0.8194472849372687],[1],['target_find'],425.95525833656393,426.96918330642075,,,,,,,,,,,,,,,,,,,,,,,,,,,,,,,,782594,001,2023-11-06_14h26.37.505,Selektive Wahrnehmung,2023.2.3,59.90245223967743,2023-11-06 14h27.06.455370 +0100,
gruppe2,4,15,79,7,,,,,427.0109018960211,,,,,,,,,,426.96977324386353,427.0109018960211,429.0205144061074,429.97259180225956,3.0035757490768447,431.32378548691304,"[300, 300]",[0.17037037037037037],[0.31574074074074077],[1],[0],[0],[1.3505539694633626],[1],['target_find'],431.3242801355209,432.34178910333867,,,,,,,,,,,,,,,,,,,,,,,,,,,,,,,,782594,001,2023-11-06_14h26.37.505,Selektive Wahrnehmung,2023.2.3,59.90245223967743,2023-11-06 14h27.06.455370 +0100,
,,,,,0,0,0,0,437.7115993818461,,,,,,,,,,,,,,,,,,,,,,,,,,,432.36785244851126,435.39431373123625,435.3943333578918,437.66339716926814,437.6642399776774,447.8706011758368,4.0,1.0,gesicht1,,,,,,,,,,,,,,,,,,,,,,,782594,001,2023-11-06_14h26.37.505,Selektive Wahrnehmung,2023.2.3,59.90245223967743,2023-11-06 14h27.06.455370 +0100,
,,,,,1,0,1,0,447.90431038332645,,,,,,,,,,,,,,,,,,,,,,,,,,,,,,,447.87146019756983,454.6398113337964,1.0,5.0,schlange2,,,,,,,,,,,,,,,,,,,,,,,782594,001,2023-11-06_14h26.37.505,Selektive Wahrnehmung,2023.2.3,59.90245223967743,2023-11-06 14h27.06.455370 +0100,
,,,,,2,0,2,0,454.6754359890856,,,,,,,,,,,,,,,,,,,,,,,,,,,,,,,454.6401034580758,461.4122769565711,5.0,1.0,gesicht4,,,,,,,,,,,,,,,,,,,,,,,782594,001,2023-11-06_14h26.37.505,Selektive Wahrnehmung,2023.2.3,59.90245223967743,2023-11-06 14h27.06.455370 +0100,
,,,,,3,0,3,0,461.44667992366703,,,,,,,,,,,,,,,,,,,,,,,,,,,,,,,461.41257619195676,472.25936340800763,1.0,5.0,schlange1,,,,,,,,,,,,,,,,,,,,,,,782594,001,2023-11-06_14h26.37.505,Selektive Wahrnehmung,2023.2.3,59.90245223967743,2023-11-06 14h27.06.455370 +0100,
,,,,,4,0,4,0,472.2937066418035,,,,,,,,,,,,,,,,,,,,,,,,,,,,,,,472.2596524033979,480.5259044830418,5.0,1.0,person1,,,,,,,,,,,,,,,,,,,,,,,782594,001,2023-11-06_14h26.37.505,Selektive Wahrnehmung,2023.2.3,59.90245223967743,2023-11-06 14h27.06.455370 +0100,
,,,,,,,,,,,,,,,,,,,,,,,,,,,,,,,,,,,,,,,,,,,,,480.53001413403763,491.11876658132496,19,1.0,491.1187870613121,507.6436797760398,3.0,1.0,507.64369883380823,510.4860401857204,510.4860620879299,527.5061449920595,4.0,4.0,5.0,2.0,527.5061697387137,538.6831731580169,5.0,5.0,538.6831922157853,547.5236331954457,,,,,,,,
