Target,trials.thisRepN,trials.thisTrialN,trials.thisN,trials.thisIndex,trials_2.thisRepN,trials_2.thisTrialN,trials_2.thisN,trials_2.thisIndex,thisRow.t,notes,Data_transparency.started,key_resp_data_transp.started,Data_transparency.stopped,key_resp_data_transp.keys,key_resp_data_transp.rt,key_resp_data_transp.duration,instructions.started,instructions.stopped,trial.started,target_show.started,target_show.stopped,target_find.started,mouse.started,trial.stopped,target_position_x_y,mouse.x,mouse.y,mouse.leftButton,mouse.midButton,mouse.rightButton,mouse.time,mouse.corr,mouse.clicked_name,feedback.started,feedback.stopped,instructions_survey.started,instructions_survey.stopped,instructions_ratings.started,instructions_ratings.stopped,survey_ratings.started,survey_ratings.stopped,furcht.response,liebenswert.response,rated_image,survey_gen.started,survey_gen.stopped,age.text,gender.response,survey_games.started,survey_games.stopped,pc_frequency.response,reaction_games_frequency.response,instructions_neuro.started,instructions_neuro.stopped,survey_neuro.started,survey_neuro.stopped,neuro_1_rev.response,neuro_2.response,neuro_3.response,neuro_4_rev.response,survey_fear.started,survey_fear.stopped,specific_fear_spider.response,specific_fear_snake.response,thanks.started,thanks.stopped,participant,session,date,expName,psychopyVersion,frameRate,expStart,
,,,,,,,,,,,0.013764700386673212,0.028315000236034393,19.52774340007454,z,19.487590100150555,None,,,,,,,,,,,,,,,,,,,,,,,,,,,,,,,,,,,,,,,,,,,,,,,,,,,813409,001,2023-11-06_12h52.26.517,Selektive Wahrnehmung,2023.2.3,59.535893838545036,2023-11-06 13h06.30.909095 +0100,
,,,,,,,,,,,,,,,,,19.52781640039757,40.893032600171864,,,,,,,,,,,,,,,,,,,,,,,,,,,,,,,,,,,,,,,,,,,,,,,,,813409,001,2023-11-06_12h52.26.517,Selektive Wahrnehmung,2023.2.3,59.535893838545036,2023-11-06 13h06.30.909095 +0100,
gesicht3,0,0,0,10,,,,,41.06183750042692,,,,,,,,,,40.905242800246924,41.06183750042692,43.07559210015461,43.90971400029957,3.0169353000819683,45.22778160031885,"[-300, 0]",[-0.24537037037037038],[0.07592592592592592],[1],[0],[0],[1.3170247999951243],[1],['target_find'],45.23001200007275,46.242375400383025,,,,,,,,,,,,,,,,,,,,,,,,,,,,,,,,813409,001,2023-11-06_12h52.26.517,Selektive Wahrnehmung,2023.2.3,59.535893838545036,2023-11-06 13h06.30.909095 +0100,
gruppe1,0,1,1,6,,,,,46.32501710020006,,,,,,,,,,46.24279980035499,46.32501710020006,48.32492530019954,49.25813940027729,3.015851699747145,50.24395210016519,"[-300, 300]",[-0.18796296296296297],[0.2],[1],[0],[0],[0.9850687002763152],[1],['target_find'],50.24494850030169,51.25886080041528,,,,,,,,,,,,,,,,,,,,,,,,,,,,,,,,813409,001,2023-11-06_12h52.26.517,Selektive Wahrnehmung,2023.2.3,59.535893838545036,2023-11-06 13h06.30.909095 +0100,
zug1,0,2,2,15,,,,,51.34472730010748,,,,,,,,,,51.25918970024213,51.34472730010748,53.35938550019637,54.291295000351965,3.0325257000513375,54.843341300264,"[0, 300]",[0.04814814814814815],[0.20277777777777778],[1],[0],[0],[0.5513794999569654],[1],['target_find'],54.84419900039211,55.85881350003183,,,,,,,,,,,,,,,,,,,,,,,,,,,,,,,,813409,001,2023-11-06_12h52.26.517,Selektive Wahrnehmung,2023.2.3,59.535893838545036,2023-11-06 13h06.30.909095 +0100,
schlange2,0,3,3,3,,,,,56.00773790013045,,,,,,,,,,55.85943660000339,56.00773790013045,58.007853800430894,58.89104520017281,3.0323193999938667,60.243372400291264,"[0, -300]",[-0.0712962962962963],[-0.23703703703703705],[1],[0],[0],[1.3516146000474691],[1],['target_find'],60.24422700004652,61.26000830018893,,,,,,,,,,,,,,,,,,,,,,,,,,,,,,,,813409,001,2023-11-06_12h52.26.517,Selektive Wahrnehmung,2023.2.3,59.535893838545036,2023-11-06 13h06.30.909095 +0100,
schiff1,0,4,4,14,,,,,61.3273538001813,,,,,,,,,,61.26063460018486,61.3273538001813,63.34104230022058,64.32427400024608,3.0644604000262916,64.94373320043087,"[300, 0]",[0.20092592592592592],[0.011111111111111112],[1],[0],[0],[0.6188020999543369],[1],['target_find'],64.94427310023457,65.958390600048,,,,,,,,,,,,,,,,,,,,,,,,,,,,,,,,813409,001,2023-11-06_12h52.26.517,Selektive Wahrnehmung,2023.2.3,59.535893838545036,2023-11-06 13h06.30.909095 +0100,
person2,0,5,5,5,,,,,66.00730920024216,,,,,,,,,,65.95899460045621,66.00730920024216,68.0073927002959,68.9740801001899,3.015766500029713,69.82680490007624,"[300, -300]",[0.2518518518518518],[-0.2638888888888889],[1],[0],[0],[0.8519522002898157],[1],['target_find'],69.82782810041681,70.84199450025335,,,,,,,,,,,,,,,,,,,,,,,,,,,,,,,,813409,001,2023-11-06_12h52.26.517,Selektive Wahrnehmung,2023.2.3,59.535893838545036,2023-11-06 13h06.30.909095 +0100,
spinne1,0,6,6,0,,,,,70.87698130030185,,,,,,,,,,70.84276320040226,70.87698130030185,72.8913506004028,73.85689570009708,3.01495820004493,74.62512070033699,"[0, 300]",[-0.12777777777777777],[0.37592592592592594],[1],[0],[0],[0.7676979000680149],[1],['target_find'],74.62561720004305,75.64170030038804,,,,,,,,,,,,,,,,,,,,,,,,,,,,,,,,813409,001,2023-11-06_12h52.26.517,Selektive Wahrnehmung,2023.2.3,59.535893838545036,2023-11-06 13h06.30.909095 +0100,
auto1,0,7,7,12,,,,,75.80698440037668,,,,,,,,,,75.64245420042425,75.80698440037668,77.80699760001153,78.69022850040346,3.0485974000766873,79.54321450041607,"[300, 300]",[0.23796296296296296],[0.22037037037037038],[1],[0],[0],[0.8520515002310276],[1],['target_find'],79.54461770039052,80.55778080038726,,,,,,,,,,,,,,,,,,,,,,,,,,,,,,,,813409,001,2023-11-06_12h52.26.517,Selektive Wahrnehmung,2023.2.3,59.535893838545036,2023-11-06 13h06.30.909095 +0100,
flugzeug1,0,8,8,13,,,,,80.609735800419,,,,,,,,,,80.5582989002578,80.609735800419,82.62344840029255,83.59004590008408,3.032341199927032,84.67567380005494,"[300, 300]",[0.23703703703703705],[0.23055555555555557],[1],[0],[0],[1.0847951998002827],[1],['target_find'],84.67683290038258,85.69085660018027,,,,,,,,,,,,,,,,,,,,,,,,,,,,,,,,813409,001,2023-11-06_12h52.26.517,Selektive Wahrnehmung,2023.2.3,59.535893838545036,2023-11-06 13h06.30.909095 +0100,
gesicht2,0,9,9,9,,,,,85.73999770032242,,,,,,,,,,85.69144040020183,85.73999770032242,87.73977780016139,88.72285790042952,2.99901570007205,89.60967700043693,"[300, 300]",[0.275],[0.1935185185185185],[1],[0],[0],[0.9186277003027499],[1],['target_find'],89.61094930022955,90.62405240023509,,,,,,,,,,,,,,,,,,,,,,,,,,,,,,,,813409,001,2023-11-06_12h52.26.517,Selektive Wahrnehmung,2023.2.3,59.535893838545036,2023-11-06 13h06.30.909095 +0100,
person1,0,10,10,4,,,,,90.65944340033457,,,,,,,,,,90.6245491001755,90.65944340033457,92.67396460007876,93.63927370030433,3.0152904000133276,95.52584360027686,"[300, 300]",[0.3435185185185185],[0.2851851851851852],[1],[0],[0],[1.8857784997671843],[1],['target_find'],95.52695200033486,96.54067150037736,,,,,,,,,,,,,,,,,,,,,,,,,,,,,,,,813409,001,2023-11-06_12h52.26.517,Selektive Wahrnehmung,2023.2.3,59.535893838545036,2023-11-06 13h06.30.909095 +0100,
schlange1,0,11,11,2,,,,,96.57268770039082,,,,,,,,,,96.54138060007244,96.57268770039082,98.57248490024358,99.57234420021996,3.031724799890071,100.3768714000471,"[-300, 300]",[-0.24166666666666667],[0.275],[1],[0],[0],[0.8036424000747502],[1],['target_find'],100.37829630030319,101.39019750012085,,,,,,,,,,,,,,,,,,,,,,,,,,,,,,,,813409,001,2023-11-06_12h52.26.517,Selektive Wahrnehmung,2023.2.3,59.535893838545036,2023-11-06 13h06.30.909095 +0100,
spinne2,0,12,12,1,,,,,101.59055680036545,,,,,,,,,,101.39044680027291,101.59055680036545,103.58921650005504,104.42252200003713,3.032415200024843,105.42499110009521,"[0, -300]",[-0.08888888888888889],[-0.2657407407407407],[1],[0],[0],[1.0017344001680613],[1],['target_find'],105.42597750015557,106.43913590023294,,,,,,,,,,,,,,,,,,,,,,,,,,,,,,,,813409,001,2023-11-06_12h52.26.517,Selektive Wahrnehmung,2023.2.3,59.535893838545036,2023-11-06 13h06.30.909095 +0100,
gesicht4,0,13,13,11,,,,,106.50552730029449,,,,,,,,,,106.43948620045558,106.50552730029449,108.50567080033943,109.48884830018505,3.0498001002706587,110.39133930020034,"[-300, -300]",[-0.18055555555555555],[-0.18981481481481483],[1],[0],[0],[0.9017584002576768],[1],['target_find'],110.39232910005376,111.40635840035975,,,,,,,,,,,,,,,,,,,,,,,,,,,,,,,,813409,001,2023-11-06_12h52.26.517,Selektive Wahrnehmung,2023.2.3,59.535893838545036,2023-11-06 13h06.30.909095 +0100,
gruppe2,0,14,14,7,,,,,111.45565110025927,,,,,,,,,,111.4069662000984,111.45565110025927,113.45548430038616,114.42195160035044,3.0156798996031284,115.44108360027894,"[0, -300]",[-0.1037037037037037],[-0.24444444444444444],[1],[0],[0],[1.0184109001420438],[1],['target_find'],115.44207980018109,116.4560580002144,,,,,,,,,,,,,,,,,,,,,,,,,,,,,,,,813409,001,2023-11-06_12h52.26.517,Selektive Wahrnehmung,2023.2.3,59.535893838545036,2023-11-06 13h06.30.909095 +0100,
gesicht1,0,15,15,8,,,,,116.48843830032274,,,,,,,,,,116.45650500012562,116.48843830032274,118.4899498000741,119.48860060004517,3.032623100094497,120.12483490025625,"[-300, 0]",[-0.20555555555555555],[-0.09814814814814815],[1],[0],[0],[0.6354163000360131],[1],['target_find'],120.12591110030189,121.13983570039272,,,,,,,,,,,,,,,,,,,,,,,,,,,,,,,,813409,001,2023-11-06_12h52.26.517,Selektive Wahrnehmung,2023.2.3,59.535893838545036,2023-11-06 13h06.30.909095 +0100,
auto1,1,0,16,12,,,,,121.17478920007125,,,,,,,,,,121.14043480018154,121.17478920007125,123.18955270014703,124.15502480044961,3.0154044004157186,124.8746143002063,"[-300, 300]",[-0.2037037037037037],[0.29907407407407405],[1],[0],[0],[0.7185049001127481],[1],['target_find'],124.87592190038413,125.89080620044842,,,,,,,,,,,,,,,,,,,,,,,,,,,,,,,,813409,001,2023-11-06_12h52.26.517,Selektive Wahrnehmung,2023.2.3,59.535893838545036,2023-11-06 13h06.30.909095 +0100,
gesicht3,1,1,17,10,,,,,125.94107910012826,,,,,,,,,,125.8915577000007,125.94107910012826,127.95611290028319,128.92164710024372,3.031065999995917,129.74104220001027,"[-300, 300]",[-0.2361111111111111],[0.375],[1],[0],[0],[0.8183790999464691],[1],['target_find'],129.74221060005948,130.75504360022023,,,,,,,,,,,,,,,,,,,,,,,,,,,,,,,,813409,001,2023-11-06_12h52.26.517,Selektive Wahrnehmung,2023.2.3,59.535893838545036,2023-11-06 13h06.30.909095 +0100,
schlange1,1,2,18,2,,,,,130.78913550032303,,,,,,,,,,130.75530070019886,130.78913550032303,132.8058633003384,133.7878879001364,3.0329534001648426,135.32445150008425,"[300, 0]",[0.24166666666666667],[-0.05092592592592592],[1],[0],[0],[1.535589599981904],[1],['target_find'],135.32585000013933,136.3389491001144,,,,,,,,,,,,,,,,,,,,,,,,,,,,,,,,813409,001,2023-11-06_12h52.26.517,Selektive Wahrnehmung,2023.2.3,59.535893838545036,2023-11-06 13h06.30.909095 +0100,
gruppe1,1,3,19,6,,,,,136.3876042002812,,,,,,,,,,136.3397106002085,136.3876042002812,138.38755790004507,139.3710288000293,3.032295699696988,140.17295410018414,"[300, 300]",[0.20185185185185187],[0.19722222222222222],[1],[0],[0],[0.8012397000566125],[1],['target_find'],140.17341490043327,141.1884563001804,,,,,,,,,,,,,,,,,,,,,,,,,,,,,,,,813409,001,2023-11-06_12h52.26.517,Selektive Wahrnehmung,2023.2.3,59.535893838545036,2023-11-06 13h06.30.909095 +0100,
gruppe2,1,4,20,7,,,,,141.2374505000189,,,,,,,,,,141.18905160017312,141.2374505000189,143.23738440033048,144.22068250039592,3.0323379999026656,145.77340520033613,"[-300, -300]",[-0.2601851851851852],[-0.2722222222222222],[1],[0],[0],[1.5518585001118481],[1],['target_find'],145.7744836001657,146.78767150035128,,,,,,,,,,,,,,,,,,,,,,,,,,,,,,,,813409,001,2023-11-06_12h52.26.517,Selektive Wahrnehmung,2023.2.3,59.535893838545036,2023-11-06 13h06.30.909095 +0100,
person2,1,5,21,5,,,,,146.8219493003562,,,,,,,,,,146.78798480005935,146.8219493003562,148.8216693000868,149.80410090042278,3.0167033998295665,150.9394216001965,"[-300, -300]",[-0.24537037037037038],[-0.22685185185185186],[1],[0],[0],[1.134298900142312],[1],['target_find'],150.94058110006154,151.95504200039431,,,,,,,,,,,,,,,,,,,,,,,,,,,,,,,,813409,001,2023-11-06_12h52.26.517,Selektive Wahrnehmung,2023.2.3,59.535893838545036,2023-11-06 13h06.30.909095 +0100,
gesicht2,1,6,22,9,,,,,152.00362730026245,,,,,,,,,,151.95579170016572,152.00362730026245,154.00357540044934,154.98681070003659,3.031852699816227,155.88982470007613,"[0, 300]",[0.1175925925925926],[0.262037037037037],[1],[0],[0],[0.9022037000395358],[1],['target_find'],155.89092480018735,156.9049243000336,,,,,,,,,,,,,,,,,,,,,,,,,,,,,,,,813409,001,2023-11-06_12h52.26.517,Selektive Wahrnehmung,2023.2.3,59.535893838545036,2023-11-06 13h06.30.909095 +0100,
zug1,1,7,23,15,,,,,156.95680660009384,,,,,,,,,,156.90568090043962,156.95680660009384,158.9714709999971,159.91997690033168,3.0151264001615345,160.6225517001003,"[-300, 0]",[-0.2324074074074074],[0.0712962962962963],[1],[0],[0],[0.7017674995586276],[1],['target_find'],160.62360110040754,161.63756460044533,,,,,,,,,,,,,,,,,,,,,,,,,,,,,,,,813409,001,2023-11-06_12h52.26.517,Selektive Wahrnehmung,2023.2.3,59.535893838545036,2023-11-06 13h06.30.909095 +0100,
schlange2,1,8,24,3,,,,,161.66994430031627,,,,,,,,,,161.63816720014438,161.66994430031627,163.6699242000468,164.6696218000725,3.032114800065756,166.12315920041874,"[300, -300]",[0.34629629629629627],[-0.2675925925925926],[1],[0],[0],[1.4527491996996105],[1],['target_find'],166.12425900017843,167.13731350004673,,,,,,,,,,,,,,,,,,,,,,,,,,,,,,,,813409,001,2023-11-06_12h52.26.517,Selektive Wahrnehmung,2023.2.3,59.535893838545036,2023-11-06 13h06.30.909095 +0100,
spinne1,1,9,25,0,,,,,167.1860742000863,,,,,,,,,,167.13785140030086,167.1860742000863,169.1863446002826,170.1694630002603,2.9990954003296793,171.23855770006776,"[300, 0]",[0.1685185185185185],[-0.03148148148148148],[1],[0],[0],[1.1010232996195555],[1],['target_find'],171.23965570004657,172.2542245001532,,,,,,,,,,,,,,,,,,,,,,,,,,,,,,,,813409,001,2023-11-06_12h52.26.517,Selektive Wahrnehmung,2023.2.3,59.535893838545036,2023-11-06 13h06.30.909095 +0100,
gesicht4,1,10,26,11,,,,,172.30584730021656,,,,,,,,,,172.25492790015414,172.30584730021656,174.31947890017182,175.28596190037206,3.0318055003881454,175.98718760022894,"[300, 300]",[0.4324074074074074],[0.19814814814814816],[1],[0],[0],[0.7007074002176523],[],[],175.9876774000004,177.00397010007873,,,,,,,,,,,,,,,,,,,,,,,,,,,,,,,,813409,001,2023-11-06_12h52.26.517,Selektive Wahrnehmung,2023.2.3,59.535893838545036,2023-11-06 13h06.30.909095 +0100,
schiff1,1,11,27,14,,,,,177.03616690030321,,,,,,,,,,177.00472320010886,177.03616690030321,179.035875600297,180.03577280044556,3.0319031001999974,181.22153930040076,"[300, 0]",[0.21203703703703702],[-0.025],[1],[0],[0],[1.1848824000917375],[1],['target_find'],181.22269630013034,182.23718300042674,,,,,,,,,,,,,,,,,,,,,,,,,,,,,,,,813409,001,2023-11-06_12h52.26.517,Selektive Wahrnehmung,2023.2.3,59.535893838545036,2023-11-06 13h06.30.909095 +0100,
gesicht1,1,12,28,8,,,,,182.30380160035565,,,,,,,,,,182.23794160038233,182.30380160035565,184.30234880000353,185.25227570021525,3.0151634998619556,186.00421760044992,"[-300, 300]",[-0.37407407407407406],[0.3],[1],[0],[0],[0.7512139002792537],[1],['target_find'],186.00499210041016,187.01970020029694,,,,,,,,,,,,,,,,,,,,,,,,,,,,,,,,813409,001,2023-11-06_12h52.26.517,Selektive Wahrnehmung,2023.2.3,59.535893838545036,2023-11-06 13h06.30.909095 +0100,
flugzeug1,1,13,29,13,,,,,187.05206740042195,,,,,,,,,,187.02019410021603,187.05206740042195,189.05214190017432,190.05199120007455,2.9990286002866924,190.85490910010412,"[300, 300]",[0.262037037037037],[0.20555555555555555],[1],[0],[0],[0.8350566001608968],[1],['target_find'],190.85625440021977,191.8702340000309,,,,,,,,,,,,,,,,,,,,,,,,,,,,,,,,813409,001,2023-11-06_12h52.26.517,Selektive Wahrnehmung,2023.2.3,59.535893838545036,2023-11-06 13h06.30.909095 +0100,
person1,1,14,30,4,,,,,191.90508650010452,,,,,,,,,,191.870857400354,191.90508650010452,193.91939870035276,194.90330290002748,3.0332891000434756,195.57089320011437,"[300, 0]",[0.33425925925925926],[0.03981481481481482],[1],[0],[0],[0.6667343997396529],[1],['target_find'],195.57174130016938,196.58722090022638,,,,,,,,,,,,,,,,,,,,,,,,,,,,,,,,813409,001,2023-11-06_12h52.26.517,Selektive Wahrnehmung,2023.2.3,59.535893838545036,2023-11-06 13h06.30.909095 +0100,
spinne2,1,15,31,1,,,,,196.80178610002622,,,,,,,,,,196.5878131003119,196.80178610002622,198.80298820044845,199.6350943003781,2.99915389996022,201.25391930015758,"[-300, -300]",[-0.35462962962962963],[-0.22314814814814815],[1],[0],[0],[1.6664034998975694],[1],['target_find'],201.25508740032092,202.2691348004155,,,,,,,,,,,,,,,,,,,,,,,,,,,,,,,,813409,001,2023-11-06_12h52.26.517,Selektive Wahrnehmung,2023.2.3,59.535893838545036,2023-11-06 13h06.30.909095 +0100,
schlange1,2,0,32,2,,,,,202.31798290042207,,,,,,,,,,202.26975650014356,202.31798290042207,204.31802820041776,205.3348372001201,3.065778100397438,205.9875784004107,"[-300, 0]",[-0.23148148148148148],[-0.058333333333333334],[1],[0],[0],[0.6519271000288427],[1],['target_find'],205.98863170016557,207.00393890030682,,,,,,,,,,,,,,,,,,,,,,,,,,,,,,,,813409,001,2023-11-06_12h52.26.517,Selektive Wahrnehmung,2023.2.3,59.535893838545036,2023-11-06 13h06.30.909095 +0100,
spinne1,2,1,33,0,,,,,207.05423250002787,,,,,,,,,,207.00469030020759,207.05423250002787,209.06804000027478,210.0343178003095,3.0304282000288367,210.5538895004429,"[-300, 0]",[-0.2],[-0.05925925925925926],[1],[0],[0],[0.5188027997501194],[1],['target_find'],210.55504300026223,211.56905320007354,,,,,,,,,,,,,,,,,,,,,,,,,,,,,,,,813409,001,2023-11-06_12h52.26.517,Selektive Wahrnehmung,2023.2.3,59.535893838545036,2023-11-06 13h06.30.909095 +0100,
gesicht4,2,2,34,11,,,,,211.61776910023764,,,,,,,,,,211.56977380020544,211.61776910023764,213.61780030000955,214.60079160006717,3.0318148997612298,215.18777090031654,"[-300, 0]",[-0.17685185185185184],[-0.05185185185185185],[1],[0],[0],[0.5860196999274194],[1],['target_find'],215.18917740043253,216.20207550004125,,,,,,,,,,,,,,,,,,,,,,,,,,,,,,,,813409,001,2023-11-06_12h52.26.517,Selektive Wahrnehmung,2023.2.3,59.535893838545036,2023-11-06 13h06.30.909095 +0100,
gesicht2,2,3,35,9,,,,,216.23753730021417,,,,,,,,,,216.20262020034716,216.23753730021417,218.25084400037304,219.2174286004156,3.0154486000537872,220.15360060008243,"[0, -300]",[-0.05648148148148148],[-0.2],[1],[0],[0],[0.9353285999968648],[1],['target_find'],220.15464860014617,221.16830210015178,,,,,,,,,,,,,,,,,,,,,,,,,,,,,,,,813409,001,2023-11-06_12h52.26.517,Selektive Wahrnehmung,2023.2.3,59.535893838545036,2023-11-06 13h06.30.909095 +0100,
person1,2,4,36,4,,,,,221.20049290033057,,,,,,,,,,221.16888510016724,221.20049290033057,223.200354100205,224.20067510008812,3.032459700014442,225.01971520017833,"[300, -300]",[0.22777777777777777],[-0.25925925925925924],[1],[0],[0],[0.818187799770385],[1],['target_find'],225.02078870031983,226.03563070017844,,,,,,,,,,,,,,,,,,,,,,,,,,,,,,,,813409,001,2023-11-06_12h52.26.517,Selektive Wahrnehmung,2023.2.3,59.535893838545036,2023-11-06 13h06.30.909095 +0100,
schiff1,2,5,37,14,,,,,226.0867057000287,,,,,,,,,,226.03607470029965,226.0867057000287,228.10143430018798,229.06711960025132,3.0315681002102792,230.3198904003948,"[-300, 300]",[-0.2833333333333333],[0.2222222222222222],[1],[0],[0],[1.251833699643612],[1],['target_find'],230.32118100021034,231.33491210034117,,,,,,,,,,,,,,,,,,,,,,,,,,,,,,,,813409,001,2023-11-06_12h52.26.517,Selektive Wahrnehmung,2023.2.3,59.535893838545036,2023-11-06 13h06.30.909095 +0100,
person2,2,6,38,5,,,,,231.38357080006972,,,,,,,,,,231.33565070014447,231.38357080006972,233.3836102001369,234.36695570033044,3.032268099952489,235.05227510025725,"[0, -300]",[0.05],[-0.21481481481481482],[1],[0],[0],[0.6844787001609802],[1],['target_find'],235.0531222000718,236.06711670011282,,,,,,,,,,,,,,,,,,,,,,,,,,,,,,,,813409,001,2023-11-06_12h52.26.517,Selektive Wahrnehmung,2023.2.3,59.535893838545036,2023-11-06 13h06.30.909095 +0100,
schlange2,2,7,39,3,,,,,236.10137140005827,,,,,,,,,,236.06739820027724,236.10137140005827,238.1011605001986,239.08309430023655,3.0160454995930195,240.21961860032752,"[-300, -300]",[-0.23796296296296296],[-0.28703703703703703],[1],[0],[0],[1.1357423001900315],[1],['target_find'],240.2207029000856,241.23411060031503,,,,,,,,,,,,,,,,,,,,,,,,,,,,,,,,813409,001,2023-11-06_12h52.26.517,Selektive Wahrnehmung,2023.2.3,59.535893838545036,2023-11-06 13h06.30.909095 +0100,
gesicht3,2,8,40,10,,,,,241.26638080039993,,,,,,,,,,241.23470980022103,241.26638080039993,243.2664093002677,244.26624650042504,3.0322207999415696,245.11883170017973,"[-300, 300]",[-0.1935185185185185],[0.2222222222222222],[1],[0],[0],[0.8518260000273585],[1],['target_find'],245.11989120021462,246.13505030004308,,,,,,,,,,,,,,,,,,,,,,,,,,,,,,,,813409,001,2023-11-06_12h52.26.517,Selektive Wahrnehmung,2023.2.3,59.535893838545036,2023-11-06 13h06.30.909095 +0100,
flugzeug1,2,9,41,13,,,,,246.16758540039882,,,,,,,,,,246.1355424001813,246.16758540039882,248.18426240002736,249.1508760000579,3.0159149998798966,250.2204108000733,"[-300, 0]",[-0.2740740740740741],[-0.005555555555555556],[1],[0],[0],[1.0687176999635994],[1],['target_find'],250.2214761003852,251.23368160007522,,,,,,,,,,,,,,,,,,,,,,,,,,,,,,,,813409,001,2023-11-06_12h52.26.517,Selektive Wahrnehmung,2023.2.3,59.535893838545036,2023-11-06 13h06.30.909095 +0100,
spinne2,2,10,42,1,,,,,251.41595430020243,,,,,,,,,,251.23432990023866,251.41595430020243,253.4157669004053,254.2826444003731,2.9990575998090208,255.10110600013286,"[300, 0]",[0.33425925925925926],[-0.019444444444444445],[1],[0],[0],[0.8674360997974873],[1],['target_find'],255.10167620005086,256.11682230001315,,,,,,,,,,,,,,,,,,,,,,,,,,,,,,,,813409,001,2023-11-06_12h52.26.517,Selektive Wahrnehmung,2023.2.3,59.535893838545036,2023-11-06 13h06.30.909095 +0100,
gruppe2,2,11,43,7,,,,,256.18247830029577,,,,,,,,,,256.1174167999998,256.18247830029577,258.1836540000513,259.1823579003103,2.999548099935055,260.00158080039546,"[300, 0]",[0.16111111111111112],[-0.053703703703703705],[1],[0],[0],[0.8843033001758158],[1],['target_find'],260.00266480026767,261.0165473003872,,,,,,,,,,,,,,,,,,,,,,,,,,,,,,,,813409,001,2023-11-06_12h52.26.517,Selektive Wahrnehmung,2023.2.3,59.535893838545036,2023-11-06 13h06.30.909095 +0100,
auto1,2,12,44,12,,,,,261.06576620042324,,,,,,,,,,261.0171313001774,261.06576620042324,263.0655435002409,264.0319216004573,3.015437699854374,265.30299650039524,"[0, -300]",[-0.05185185185185185],[-0.287962962962963],[1],[0],[0],[1.2702913000248373],[1],['target_find'],265.3041571001522,266.31676790025085,,,,,,,,,,,,,,,,,,,,,,,,,,,,,,,,813409,001,2023-11-06_12h52.26.517,Selektive Wahrnehmung,2023.2.3,59.535893838545036,2023-11-06 13h06.30.909095 +0100,
zug1,2,13,45,15,,,,,266.3653428000398,,,,,,,,,,266.31751220021397,266.3653428000398,268.36519630020484,269.3485632003285,3.0318616996519268,270.2345766001381,"[300, 300]",[0.23703703703703705],[0.33055555555555555],[1],[0],[0],[0.8852082001976669],[1],['target_find'],270.23575290013105,271.24974980019033,,,,,,,,,,,,,,,,,,,,,,,,,,,,,,,,813409,001,2023-11-06_12h52.26.517,Selektive Wahrnehmung,2023.2.3,59.535893838545036,2023-11-06 13h06.30.909095 +0100,
gruppe1,2,14,46,6,,,,,271.2985097002238,,,,,,,,,,271.25050420034677,271.2985097002238,273.2994895000011,274.264781200327,3.0150817995890975,274.9509690999985,"[300, -300]",[0.2361111111111111],[-0.2564814814814815],[1],[0],[0],[0.6854523997753859],[1],['target_find'],274.9519557002932,275.9659184003249,,,,,,,,,,,,,,,,,,,,,,,,,,,,,,,,813409,001,2023-11-06_12h52.26.517,Selektive Wahrnehmung,2023.2.3,59.535893838545036,2023-11-06 13h06.30.909095 +0100,
gesicht1,2,15,47,8,,,,,276.015072400216,,,,,,,,,,275.966402400285,276.015072400216,278.0149404001422,278.9980045002885,3.032148199621588,279.5005479003303,"[-300, 0]",[-0.19074074074074074],[-0.032407407407407406],[1],[0],[0],[0.5017067999579012],[1],['target_find'],279.5017750002444,280.5157827003859,,,,,,,,,,,,,,,,,,,,,,,,,,,,,,,,813409,001,2023-11-06_12h52.26.517,Selektive Wahrnehmung,2023.2.3,59.535893838545036,2023-11-06 13h06.30.909095 +0100,
schlange2,3,0,48,3,,,,,280.5513850003481,,,,,,,,,,280.5162810003385,280.5513850003481,282.56578110018745,283.53112930012867,3.0155187002383173,284.3333519003354,"[0, 300]",[0.05925925925925926],[0.2222222222222222],[1],[0],[0],[0.8013204000890255],[1],['target_find'],284.3343344000168,285.3487003003247,,,,,,,,,,,,,,,,,,,,,,,,,,,,,,,,813409,001,2023-11-06_12h52.26.517,Selektive Wahrnehmung,2023.2.3,59.535893838545036,2023-11-06 13h06.30.909095 +0100,
gruppe2,3,1,49,7,,,,,285.3977951002307,,,,,,,,,,285.34920500032604,285.3977951002307,287.39787200000137,288.3645688001998,3.0159563003107905,289.6325645004399,"[300, -300]",[0.2111111111111111],[-0.24351851851851852],[1],[0],[0],[1.2674455000087619],[1],['target_find'],289.63309230003506,290.6497873002663,,,,,,,,,,,,,,,,,,,,,,,,,,,,,,,,813409,001,2023-11-06_12h52.26.517,Selektive Wahrnehmung,2023.2.3,59.535893838545036,2023-11-06 13h06.30.909095 +0100,
schiff1,3,2,50,14,,,,,290.7006493001245,,,,,,,,,,290.65037370007485,290.7006493001245,292.7152571002953,293.66441480023786,3.0147090000100434,294.3167853001505,"[-300, 0]",[-0.18518518518518517],[0.005555555555555556],[1],[0],[0],[0.6514993002638221],[1],['target_find'],294.318007200025,295.3317258004099,,,,,,,,,,,,,,,,,,,,,,,,,,,,,,,,813409,001,2023-11-06_12h52.26.517,Selektive Wahrnehmung,2023.2.3,59.535893838545036,2023-11-06 13h06.30.909095 +0100,
gesicht1,3,3,51,8,,,,,295.3808162002824,,,,,,,,,,295.3323126002215,295.3808162002824,297.38072560029104,298.3639739002101,2.999071799684316,299.0024954001419,"[-300, 300]",[-0.25555555555555554],[0.2101851851851852],[1],[0],[0],[0.6703048995696008],[1],['target_find'],299.00430440017954,300.01611060043797,,,,,,,,,,,,,,,,,,,,,,,,,,,,,,,,813409,001,2023-11-06_12h52.26.517,Selektive Wahrnehmung,2023.2.3,59.535893838545036,2023-11-06 13h06.30.909095 +0100,
gruppe1,3,4,52,6,,,,,300.0670177000575,,,,,,,,,,300.01670690020546,300.0670177000575,302.08145800000057,303.0468898001127,2.9991016001440585,303.6835939004086,"[0, -300]",[0.030555555555555555],[-0.1925925925925926],[1],[0],[0],[0.6671998999081552],[1],['target_find'],303.6847475999966,304.69804070005193,,,,,,,,,,,,,,,,,,,,,,,,,,,,,,,,813409,001,2023-11-06_12h52.26.517,Selektive Wahrnehmung,2023.2.3,59.535893838545036,2023-11-06 13h06.30.909095 +0100,
zug1,3,5,53,15,,,,,304.7300553000532,,,,,,,,,,304.698694600258,304.7300553000532,306.7299294001423,307.7303474000655,3.0325101003982127,308.2664763000794,"[-300, 0]",[-0.20925925925925926],[0.02962962962962963],[1],[0],[0],[0.5351478001102805],[1],['target_find'],308.2676165001467,309.28058160003275,,,,,,,,,,,,,,,,,,,,,,,,,,,,,,,,813409,001,2023-11-06_12h52.26.517,Selektive Wahrnehmung,2023.2.3,59.535893838545036,2023-11-06 13h06.30.909095 +0100,
person1,3,6,54,4,,,,,309.31336640007794,,,,,,,,,,309.281042100396,309.31336640007794,311.31351540004835,312.29651050036773,3.0160944000817835,312.86636400036514,"[0, 300]",[0.049074074074074076],[0.24351851851851852],[1],[0],[0],[0.5689362999983132],[1],['target_find'],312.8674062001519,313.8809544001706,,,,,,,,,,,,,,,,,,,,,,,,,,,,,,,,813409,001,2023-11-06_12h52.26.517,Selektive Wahrnehmung,2023.2.3,59.535893838545036,2023-11-06 13h06.30.909095 +0100,
auto1,3,7,55,12,,,,,313.91335620032623,,,,,,,,,,313.88155230041593,313.91335620032623,315.91463680006564,316.89661500044167,3.0157412998378277,317.3995857001282,"[-300, 0]",[-0.15833333333333333],[0.018518518518518517],[1],[0],[0],[0.5024954001419246],[1],['target_find'],317.40007260022685,318.4138993001543,,,,,,,,,,,,,,,,,,,,,,,,,,,,,,,,813409,001,2023-11-06_12h52.26.517,Selektive Wahrnehmung,2023.2.3,59.535893838545036,2023-11-06 13h06.30.909095 +0100,
spinne1,3,8,56,0,,,,,318.4465826000087,,,,,,,,,,318.41432300023735,318.4465826000087,320.4465402001515,321.4297101004049,3.0158899002708495,322.36594800045714,"[-300, 300]",[-0.19537037037037036],[0.2111111111111111],[1],[0],[0],[0.9354248996824026],[1],['target_find'],322.3670996003784,323.38191120000556,,,,,,,,,,,,,,,,,,,,,,,,,,,,,,,,813409,001,2023-11-06_12h52.26.517,Selektive Wahrnehmung,2023.2.3,59.535893838545036,2023-11-06 13h06.30.909095 +0100,
spinne2,3,9,57,1,,,,,323.5973653001711,,,,,,,,,,323.38250590022653,323.5973653001711,325.59748800005764,326.4129612999968,3.0312628000974655,327.6824662000872,"[-300, -300]",[-0.2212962962962963],[-0.16296296296296298],[1],[0],[0],[1.2685182001441717],[1],['target_find'],327.683619200252,328.6970591000281,,,,,,,,,,,,,,,,,,,,,,,,,,,,,,,,813409,001,2023-11-06_12h52.26.517,Selektive Wahrnehmung,2023.2.3,59.535893838545036,2023-11-06 13h06.30.909095 +0100,
gesicht3,3,10,58,10,,,,,328.7460340000689,,,,,,,,,,328.69765260023996,328.7460340000689,330.74582880036905,331.7625881000422,3.0656095002777874,332.1980310003273,"[-300, 0]",[-0.24537037037037038],[-0.03888888888888889],[1],[0],[0],[0.43469770019873977],[1],['target_find'],332.1990939001553,333.21506690001115,,,,,,,,,,,,,,,,,,,,,,,,,,,,,,,,813409,001,2023-11-06_12h52.26.517,Selektive Wahrnehmung,2023.2.3,59.535893838545036,2023-11-06 13h06.30.909095 +0100,
gesicht4,3,11,59,11,,,,,333.248772200197,,,,,,,,,,333.215755100362,333.248772200197,335.26361950021237,336.26364570017904,3.0487889000214636,336.85060050012544,"[300, 0]",[0.3314814814814815],[-0.028703703703703703],[1],[0],[0],[0.5858352999202907],[1],['target_find'],336.8519887002185,337.8632904002443,,,,,,,,,,,,,,,,,,,,,,,,,,,,,,,,813409,001,2023-11-06_12h52.26.517,Selektive Wahrnehmung,2023.2.3,59.535893838545036,2023-11-06 13h06.30.909095 +0100,
gesicht2,3,12,60,9,,,,,337.89889520034194,,,,,,,,,,337.8637232002802,337.89889520034194,339.91357790026814,340.8786903000437,3.015464600175619,341.5324191004038,"[-300, 0]",[-0.16296296296296298],[-0.014814814814814815],[1],[0],[0],[0.6529451999813318],[1],['target_find'],341.5335564003326,342.54667850025,,,,,,,,,,,,,,,,,,,,,,,,,,,,,,,,813409,001,2023-11-06_12h52.26.517,Selektive Wahrnehmung,2023.2.3,59.535893838545036,2023-11-06 13h06.30.909095 +0100,
schlange1,3,13,61,2,,,,,342.59543250035495,,,,,,,,,,342.5474554002285,342.59543250035495,344.5953138000332,345.5785705000162,3.031971000134945,346.4809501999989,"[-300, -300]",[-0.2740740740740741],[-0.2212962962962963],[1],[0],[0],[0.9016116000711918],[1],['target_find'],346.48192770034075,347.4966566003859,,,,,,,,,,,,,,,,,,,,,,,,,,,,,,,,813409,001,2023-11-06_12h52.26.517,Selektive Wahrnehmung,2023.2.3,59.535893838545036,2023-11-06 13h06.30.909095 +0100,
person2,3,14,62,5,,,,,347.54814309999347,,,,,,,,,,347.4974203002639,347.54814309999347,349.5618645003997,350.5284734000452,3.0318929003551602,351.3808452002704,"[300, 300]",[0.21574074074074073],[0.21851851851851853],[1],[0],[0],[0.8515711999498308],[1],['target_find'],351.38198900036514,352.3960484000854,,,,,,,,,,,,,,,,,,,,,,,,,,,,,,,,813409,001,2023-11-06_12h52.26.517,Selektive Wahrnehmung,2023.2.3,59.535893838545036,2023-11-06 13h06.30.909095 +0100,
flugzeug1,3,15,63,13,,,,,352.4449941003695,,,,,,,,,,352.3966497001238,352.4449941003695,354.4449460003525,355.411242000293,3.015247399918735,356.34725120011717,"[300, -300]",[0.3527777777777778],[-0.26851851851851855],[1],[0],[0],[0.9353181999176741],[1],['target_find'],356.34816870000213,357.3625512002036,,,,,,,,,,,,,,,,,,,,,,,,,,,,,,,,813409,001,2023-11-06_12h52.26.517,Selektive Wahrnehmung,2023.2.3,59.535893838545036,2023-11-06 13h06.30.909095 +0100,
person2,4,0,64,5,,,,,357.39805970015004,,,,,,,,,,357.3631309000775,357.39805970015004,359.4114430001937,360.3779033003375,3.01542739989236,361.1135753002018,"[300, 300]",[0.22592592592592592],[0.20555555555555555],[1],[0],[0],[0.7349539999850094],[1],['target_find'],361.1145523004234,362.1288351002149,,,,,,,,,,,,,,,,,,,,,,,,,,,,,,,,813409,001,2023-11-06_12h52.26.517,Selektive Wahrnehmung,2023.2.3,59.535893838545036,2023-11-06 13h06.30.909095 +0100,
auto1,4,1,65,12,,,,,362.1612329003401,,,,,,,,,,362.1294238003902,362.1612329003401,364.1611699000932,365.16109690023586,3.0323366997763515,366.280794700142,"[300, -300]",[0.33425925925925926],[-0.39166666666666666],[1],[0],[0],[1.1188968000933528],[1],['target_find'],366.28197680041194,367.29603890003636,,,,,,,,,,,,,,,,,,,,,,,,,,,,,,,,813409,001,2023-11-06_12h52.26.517,Selektive Wahrnehmung,2023.2.3,59.535893838545036,2023-11-06 13h06.30.909095 +0100,
spinne1,4,2,66,0,,,,,367.3476765002124,,,,,,,,,,367.29663210036233,367.3476765002124,369.3621716001071,370.3107066000812,3.014797099865973,370.98031270038337,"[-300, 300]",[-0.2361111111111111],[0.25],[1],[0],[0],[0.6687221000902355],[1],['target_find'],370.98149190004915,371.9951427001506,,,,,,,,,,,,,,,,,,,,,,,,,,,,,,,,813409,001,2023-11-06_12h52.26.517,Selektive Wahrnehmung,2023.2.3,59.535893838545036,2023-11-06 13h06.30.909095 +0100,
gesicht4,4,3,67,11,,,,,372.0440883003175,,,,,,,,,,371.9957493999973,372.0440883003175,374.044034300372,375.0274197002873,2.9991175001487136,375.7632060004398,"[-300, 0]",[-0.16666666666666666],[-0.010185185185185186],[1],[0],[0],[0.767727299593389],[1],['target_find'],375.76434480026364,376.7784794000909,,,,,,,,,,,,,,,,,,,,,,,,,,,,,,,,813409,001,2023-11-06_12h52.26.517,Selektive Wahrnehmung,2023.2.3,59.535893838545036,2023-11-06 13h06.30.909095 +0100,
gruppe1,4,4,68,6,,,,,376.8138649002649,,,,,,,,,,376.7787469001487,376.8138649002649,378.82852940028533,379.79393760021776,3.0155472001060843,380.6961941001937,"[-300, -300]",[-0.22962962962962963],[-0.17037037037037037],[1],[0],[0],[0.9014701996929944],[1],['target_find'],380.6973423003219,381.7112108003348,,,,,,,,,,,,,,,,,,,,,,,,,,,,,,,,813409,001,2023-11-06_12h52.26.517,Selektive Wahrnehmung,2023.2.3,59.535893838545036,2023-11-06 13h06.30.909095 +0100,
gruppe2,4,5,69,7,,,,,381.7602739003487,,,,,,,,,,381.7117280000821,381.7602739003487,383.7603223002516,384.7266083001159,3.0154530997388065,385.66300010029227,"[-300, 300]",[-0.29814814814814816],[0.3212962962962963],[1],[0],[0],[0.9356089001521468],[1],['target_find'],385.6640661000274,386.67803140031174,,,,,,,,,,,,,,,,,,,,,,,,,,,,,,,,813409,001,2023-11-06_12h52.26.517,Selektive Wahrnehmung,2023.2.3,59.535893838545036,2023-11-06 13h06.30.909095 +0100,
person1,4,6,70,4,,,,,386.7129860999994,,,,,,,,,,386.6785241002217,386.7129860999994,388.72731830039993,389.6931154001504,3.0151436999440193,390.44583530025557,"[300, 300]",[0.17037037037037037],[0.18981481481481483],[1],[0],[0],[0.7519822996109724],[1],['target_find'],390.4469686001539,391.4609275003895,,,,,,,,,,,,,,,,,,,,,,,,,,,,,,,,813409,001,2023-11-06_12h52.26.517,Selektive Wahrnehmung,2023.2.3,59.535893838545036,2023-11-06 13h06.30.909095 +0100,
gesicht2,4,7,71,9,,,,,391.49333230033517,,,,,,,,,,391.4615312004462,391.49333230033517,393.4932638001628,394.4765467001125,3.015695999842137,395.3627274003811,"[300, 300]",[0.14444444444444443],[0.18333333333333332],[1],[0],[0],[0.8853426002897322],[1],['target_find'],395.36387260025367,396.37782160006464,,,,,,,,,,,,,,,,,,,,,,,,,,,,,,,,813409,001,2023-11-06_12h52.26.517,Selektive Wahrnehmung,2023.2.3,59.535893838545036,2023-11-06 13h06.30.909095 +0100,
schlange2,4,8,72,3,,,,,396.4294467000291,,,,,,,,,,396.3785714004189,396.4294467000291,398.4443180002272,399.39275400014594,3.0149766001850367,400.2797865001485,"[300, 0]",[0.24166666666666667],[0.025],[1],[0],[0],[0.8860904998145998],[1],['target_find'],400.2810713001527,401.2939322004095,,,,,,,,,,,,,,,,,,,,,,,,,,,,,,,,813409,001,2023-11-06_12h52.26.517,Selektive Wahrnehmung,2023.2.3,59.535893838545036,2023-11-06 13h06.30.909095 +0100,
zug1,4,9,73,15,,,,,401.32619080040604,,,,,,,,,,401.2945297001861,401.32619080040604,403.3258903003298,404.3258502003737,3.0319767999462783,405.31278660008684,"[-300, -300]",[-0.33425925925925926],[-0.2564814814814815],[1],[0],[0],[0.9859894998371601],[1],['target_find'],405.31408000038937,406.3272605002858,,,,,,,,,,,,,,,,,,,,,,,,,,,,,,,,813409,001,2023-11-06_12h52.26.517,Selektive Wahrnehmung,2023.2.3,59.535893838545036,2023-11-06 13h06.30.909095 +0100,
schiff1,4,10,74,14,,,,,406.3938910001889,,,,,,,,,,406.3280190001242,406.3938910001889,408.39399410039186,409.3422884000465,3.0150835001841187,410.0615576002747,"[300, 300]",[0.19166666666666668],[0.175],[1],[0],[0],[0.7184834000654519],[1],['target_find'],410.06270330026746,411.07656460022554,,,,,,,,,,,,,,,,,,,,,,,,,,,,,,,,813409,001,2023-11-06_12h52.26.517,Selektive Wahrnehmung,2023.2.3,59.535893838545036,2023-11-06 13h06.30.909095 +0100,
schlange1,4,11,75,2,,,,,411.1256655002944,,,,,,,,,,411.077070500236,411.1256655002944,413.12583120027557,414.09206430008635,3.0155581003054976,414.6447308002971,"[0, 300]",[0.04259259259259259],[0.25277777777777777],[1],[0],[0],[0.5518626999109983],[1],['target_find'],414.6458691000007,415.6609845003113,,,,,,,,,,,,,,,,,,,,,,,,,,,,,,,,813409,001,2023-11-06_12h52.26.517,Selektive Wahrnehmung,2023.2.3,59.535893838545036,2023-11-06 13h06.30.909095 +0100,
flugzeug1,4,12,76,13,,,,,415.7285411003977,,,,,,,,,,415.6617364003323,415.7285411003977,417.7435537003912,418.6753609003499,3.0144545999355614,419.49510590033606,"[0, -300]",[-0.009259259259259259],[-0.2222222222222222],[1],[0],[0],[0.8192480001598597],[1],['target_find'],419.4956367001869,420.50958650000393,,,,,,,,,,,,,,,,,,,,,,,,,,,,,,,,813409,001,2023-11-06_12h52.26.517,Selektive Wahrnehmung,2023.2.3,59.535893838545036,2023-11-06 13h06.30.909095 +0100,
gesicht3,4,13,77,10,,,,,420.55860330024734,,,,,,,,,,420.5102004003711,420.55860330024734,422.5586528000422,423.5420118002221,3.0325000998564065,424.11127690039575,"[-300, 300]",[-0.22962962962962963],[0.21481481481481482],[1],[0],[0],[0.5682588000781834],[1],['target_find'],424.11224140040576,425.12608400033787,,,,,,,,,,,,,,,,,,,,,,,,,,,,,,,,813409,001,2023-11-06_12h52.26.517,Selektive Wahrnehmung,2023.2.3,59.535893838545036,2023-11-06 13h06.30.909095 +0100,
spinne2,4,14,78,1,,,,,425.3264380004257,,,,,,,,,,425.12656630016863,425.3264380004257,427.3253134000115,428.1580976000987,3.032080300152302,428.86126220040023,"[300, 0]",[0.17962962962962964],[-0.05925925925925926],[1],[0],[0],[0.7023029001429677],[1],['target_find'],428.8626648001373,429.8759177001193,,,,,,,,,,,,,,,,,,,,,,,,,,,,,,,,813409,001,2023-11-06_12h52.26.517,Selektive Wahrnehmung,2023.2.3,59.535893838545036,2023-11-06 13h06.30.909095 +0100,
gesicht1,4,15,79,8,,,,,429.94172930018976,,,,,,,,,,429.87650750018656,429.94172930018976,431.94150700001046,432.9079277003184,3.0320719997398555,433.5447528003715,"[300, 0]",[0.24259259259259258],[-0.028703703703703703],[1],[0],[0],[0.6360808000899851],[1],['target_find'],433.5458932002075,434.5588199002668,,,,,,,,,,,,,,,,,,,,,,,,,,,,,,,,813409,001,2023-11-06_12h52.26.517,Selektive Wahrnehmung,2023.2.3,59.535893838545036,2023-11-06 13h06.30.909095 +0100,
,,,,,0,0,0,0,439.607734200079,,,,,,,,,,,,,,,,,,,,,,,,,,,434.58104640012607,437.67607460031286,437.67610440030694,439.50947420019656,439.51080000028014,452.14878780022264,1.0,4.0,gesicht2,,,,,,,,,,,,,,,,,,,,,,,813409,001,2023-11-06_12h52.26.517,Selektive Wahrnehmung,2023.2.3,59.535893838545036,2023-11-06 13h06.30.909095 +0100,
,,,,,1,0,1,0,452.19349910039455,,,,,,,,,,,,,,,,,,,,,,,,,,,,,,,452.1491158003919,468.3819042001851,1.0,4.0,flugzeug1,,,,,,,,,,,,,,,,,,,,,,,813409,001,2023-11-06_12h52.26.517,Selektive Wahrnehmung,2023.2.3,59.535893838545036,2023-11-06 13h06.30.909095 +0100,
,,,,,2,0,2,0,468.4428814002313,,,,,,,,,,,,,,,,,,,,,,,,,,,,,,,468.3822282003239,479.3313041999936,1.0,2.0,person1,,,,,,,,,,,,,,,,,,,,,,,813409,001,2023-11-06_12h52.26.517,Selektive Wahrnehmung,2023.2.3,59.535893838545036,2023-11-06 13h06.30.909095 +0100,
,,,,,3,0,3,0,479.3923133001663,,,,,,,,,,,,,,,,,,,,,,,,,,,,,,,479.33163450006396,484.09795060008764,1.0,4.0,gesicht3,,,,,,,,,,,,,,,,,,,,,,,813409,001,2023-11-06_12h52.26.517,Selektive Wahrnehmung,2023.2.3,59.535893838545036,2023-11-06 13h06.30.909095 +0100,
,,,,,4,0,4,0,484.1588679002598,,,,,,,,,,,,,,,,,,,,,,,,,,,,,,,484.0982732004486,489.0642415001057,1.0,5.0,person2,,,,,,,,,,,,,,,,,,,,,,,813409,001,2023-11-06_12h52.26.517,Selektive Wahrnehmung,2023.2.3,59.535893838545036,2023-11-06 13h06.30.909095 +0100,
,,,,,,,,,,,,,,,,,,,,,,,,,,,,,,,,,,,,,,,,,,,,,489.0684817000292,497.25922950031236, 20 ,1.0,497.2592485002242,505.8801283002831,1.0,1.0,505.8801491004415,507.9407998002134,507.94083070009947,524.944627400022,4.0,4.0,5.0,2.0,524.9446610002778,534.2122862003744,3.0,3.0,534.2123071001843,534.9404959003441,,,,,,,,
