Target,trials.thisRepN,trials.thisTrialN,trials.thisN,trials.thisIndex,trials_2.thisRepN,trials_2.thisTrialN,trials_2.thisN,trials_2.thisIndex,thisRow.t,notes,Data_transparency.started,key_resp_data_transp.started,Data_transparency.stopped,key_resp_data_transp.keys,key_resp_data_transp.rt,key_resp_data_transp.duration,instructions.started,instructions.stopped,trial.started,target_show.started,target_show.stopped,target_find.started,mouse.started,trial.stopped,target_position_x_y,mouse.x,mouse.y,mouse.leftButton,mouse.midButton,mouse.rightButton,mouse.time,mouse.corr,mouse.clicked_name,feedback.started,feedback.stopped,instructions_survey.started,instructions_survey.stopped,instructions_ratings.started,instructions_ratings.stopped,survey_ratings.started,survey_ratings.stopped,furcht.response,liebenswert.response,rated_image,survey_gen.started,survey_gen.stopped,age.text,gender.response,survey_games.started,survey_games.stopped,pc_frequency.response,reaction_games_frequency.response,instructions_neuro.started,instructions_neuro.stopped,survey_neuro.started,survey_neuro.stopped,neuro_1_rev.response,neuro_2.response,neuro_3.response,neuro_4_rev.response,survey_fear.started,survey_fear.stopped,specific_fear_spider.response,specific_fear_snake.response,thanks.started,thanks.stopped,participant,session,date,expName,psychopyVersion,frameRate,expStart,
,,,,,,,,,,,0.004200983792543411,0.024626480415463448,10.073412094265223,z,10.039074629545212,None,,,,,,,,,,,,,,,,,,,,,,,,,,,,,,,,,,,,,,,,,,,,,,,,,,,859965,001,2023-11-06_13h05.24.783,Selektive Wahrnehmung,2023.2.3,60.04174027322832,2023-11-06 13h06.29.847812 +0100,
,,,,,,,,,,,,,,,,,10.073440538719296,42.5909504648298,,,,,,,,,,,,,,,,,,,,,,,,,,,,,,,,,,,,,,,,,,,,,,,,,859965,001,2023-11-06_13h05.24.783,Selektive Wahrnehmung,2023.2.3,60.04174027322832,2023-11-06 13h06.29.847812 +0100,
auto1,0,0,0,12,,,,,42.71978287771344,,,,,,,,,,42.617143673822284,42.71978287771344,44.72276956029236,45.61741930246353,3.0266147572547197,46.59346866607666,"[0, 300]",[-0.13703703703703704],[0.2601851851851852],[1],[0],[0],[0.9752224795520306],[1],['target_find'],46.596209302544594,47.607159335166216,,,,,,,,,,,,,,,,,,,,,,,,,,,,,,,,859965,001,2023-11-06_13h05.24.783,Selektive Wahrnehmung,2023.2.3,60.04174027322832,2023-11-06 13h06.29.847812 +0100,
gruppe2,0,1,1,7,,,,,47.63144817762077,,,,,,,,,,47.60761331021786,47.63144817762077,49.639439119026065,50.62277058325708,3.0157594457268715,51.55739408917725,"[300, 300]",[0.21574074074074073],[0.2657407407407407],[1],[0],[0],[0.933952497318387],[1],['target_find'],51.557862002402544,52.57342262007296,,,,,,,,,,,,,,,,,,,,,,,,,,,,,,,,859965,001,2023-11-06_13h05.24.783,Selektive Wahrnehmung,2023.2.3,60.04174027322832,2023-11-06 13h06.29.847812 +0100,
schiff1,0,2,2,14,,,,,52.617377772927284,,,,,,,,,,52.573919262737036,52.617377772927284,54.62278765067458,55.57534632831812,3.002049718052149,56.457935843616724,"[300, 0]",[0.2490740740740741],[0.08703703703703704],[1],[0],[0],[0.8819967303425074],[1],['target_find'],56.45849904790521,57.473281705752015,,,,,,,,,,,,,,,,,,,,,,,,,,,,,,,,859965,001,2023-11-06_13h05.24.783,Selektive Wahrnehmung,2023.2.3,60.04174027322832,2023-11-06 13h06.29.847812 +0100,
gruppe1,0,3,3,6,,,,,57.77497620694339,,,,,,,,,,57.47368419542909,57.77497620694339,59.78992924652994,60.478497590869665,3.0053208470344543,61.32399222254753,"[300, 300]",[0.225],[0.225],[1],[0],[0],[0.8449368327856064],[1],['target_find'],61.324467247352004,62.34018829278648,,,,,,,,,,,,,,,,,,,,,,,,,,,,,,,,859965,001,2023-11-06_13h05.24.783,Selektive Wahrnehmung,2023.2.3,60.04174027322832,2023-11-06 13h06.29.847812 +0100,
gesicht1,0,4,4,8,,,,,62.40761223062873,,,,,,,,,,62.34066075645387,62.40761223062873,64.42307272180915,65.3430978897959,3.00312776863575,66.29081643372774,"[0, -300]",[0.06666666666666667],[-0.19537037037037036],[1],[0],[0],[0.9469550903886557],[1],['target_find'],66.2912880461663,67.30712030827999,,,,,,,,,,,,,,,,,,,,,,,,,,,,,,,,859965,001,2023-11-06_13h05.24.783,Selektive Wahrnehmung,2023.2.3,60.04174027322832,2023-11-06 13h06.29.847812 +0100,
gesicht3,0,5,5,10,,,,,67.34167480655015,,,,,,,,,,67.30755664967,67.34167480655015,69.3564620167017,70.30629854463041,2.9993466287851334,71.30763003602624,"[300, -300]",[0.26944444444444443],[-0.225],[1],[0],[0],[1.0006806794553995],[1],['target_find'],71.30811757594347,72.32354422099888,,,,,,,,,,,,,,,,,,,,,,,,,,,,,,,,859965,001,2023-11-06_13h05.24.783,Selektive Wahrnehmung,2023.2.3,60.04174027322832,2023-11-06 13h06.29.847812 +0100,
person1,0,6,6,4,,,,,72.35297072678804,,,,,,,,,,72.32400274649262,72.35297072678804,74.35664946585894,75.32270766422153,2.999239392578602,76.27420393563807,"[300, 300]",[0.275],[0.2462962962962963],[1],[0],[0],[0.9509467221796513],[1],['target_find'],76.2746698576957,77.29015794210136,,,,,,,,,,,,,,,,,,,,,,,,,,,,,,,,859965,001,2023-11-06_13h05.24.783,Selektive Wahrnehmung,2023.2.3,60.04174027322832,2023-11-06 13h06.29.847812 +0100,
zug1,0,7,7,15,,,,,77.35436052829027,,,,,,,,,,77.29041252098978,77.35436052829027,79.35641621984541,80.29133071191609,3.001296788454056,80.9741853903979,"[300, 0]",[0.4601851851851852],[-0.03425925925925926],[1],[0],[0],[0.6822448242455721],[],[],80.97465813905,81.99039027653635,,,,,,,,,,,,,,,,,,,,,,,,,,,,,,,,859965,001,2023-11-06_13h05.24.783,Selektive Wahrnehmung,2023.2.3,60.04174027322832,2023-11-06 13h06.29.847812 +0100,
gesicht2,0,8,8,9,,,,,82.24959964305162,,,,,,,,,,81.99085335619748,82.24959964305162,84.25658336095512,84.99127262830734,3.001027988269925,85.67460773512721,"[300, 300]",[0.2537037037037037],[0.2324074074074074],[1],[0],[0],[0.6827756017446518],[1],['target_find'],85.67508588917553,86.69022751785815,,,,,,,,,,,,,,,,,,,,,,,,,,,,,,,,859965,001,2023-11-06_13h05.24.783,Selektive Wahrnehmung,2023.2.3,60.04174027322832,2023-11-06 13h06.29.847812 +0100,
spinne1,0,9,9,0,,,,,86.98711459711194,,,,,,,,,,86.690478682518,86.98711459711194,88.9899314660579,89.69084163568914,3.0007062796503305,90.75764662027359,"[0, -300]",[0.0712962962962963],[-0.22777777777777777],[1],[0],[0],[1.0662645362317562],[1],['target_find'],90.75811936892569,91.77321491762996,,,,,,,,,,,,,,,,,,,,,,,,,,,,,,,,859965,001,2023-11-06_13h05.24.783,Selektive Wahrnehmung,2023.2.3,60.04174027322832,2023-11-06 13h06.29.847812 +0100,
gesicht4,0,10,10,11,,,,,91.85508017800748,,,,,,,,,,91.7735164295882,91.85508017800748,93.8565052524209,94.77362053655088,3.000487256795168,95.60815830901265,"[-300, -300]",[-0.18055555555555555],[-0.20185185185185187],[1],[0],[0],[0.8339956179261208],[1],['target_find'],95.60879717580974,96.6242235340178,,,,,,,,,,,,,,,,,,,,,,,,,,,,,,,,859965,001,2023-11-06_13h05.24.783,Selektive Wahrnehmung,2023.2.3,60.04174027322832,2023-11-06 13h06.29.847812 +0100,
flugzeug1,0,11,11,13,,,,,96.75209565646946,,,,,,,,,,96.62479811534286,96.75209565646946,98.75684874877334,99.63953895866871,3.015390234068036,100.62442719750106,"[-300, -300]",[-0.23796296296296296],[-0.27314814814814814],[1],[0],[0],[0.9843435231596231],[1],['target_find'],100.62490677274764,101.64131105691195,,,,,,,,,,,,,,,,,,,,,,,,,,,,,,,,859965,001,2023-11-06_13h05.24.783,Selektive Wahrnehmung,2023.2.3,60.04174027322832,2023-11-06 13h06.29.847812 +0100,
spinne2,0,12,12,1,,,,,102.19995898380876,,,,,,,,,,101.64194338023663,102.19995898380876,104.20655955187976,104.65790080092847,3.0166568718850613,105.42472905106843,"[-300, -300]",[-0.22592592592592592],[-0.225],[1],[0],[0],[0.7663324605673552],[1],['target_find'],105.42520094662905,106.44089838303626,,,,,,,,,,,,,,,,,,,,,,,,,,,,,,,,859965,001,2023-11-06_13h05.24.783,Selektive Wahrnehmung,2023.2.3,60.04174027322832,2023-11-06 13h06.29.847812 +0100,
schlange1,0,13,13,2,,,,,106.5401814095676,,,,,,,,,,106.4413634520024,106.5401814095676,108.53967224992812,109.44096636585891,3.000233529135585,110.10821150057018,"[300, 0]",[0.20925925925925926],[0.012037037037037037],[1],[0],[0],[0.6665636021643877],[1],['target_find'],110.10882960259914,111.12414616532624,,,,,,,,,,,,,,,,,,,,,,,,,,,,,,,,859965,001,2023-11-06_13h05.24.783,Selektive Wahrnehmung,2023.2.3,60.04174027322832,2023-11-06 13h06.29.847812 +0100,
person2,0,14,14,5,,,,,111.15665179863572,,,,,,,,,,111.12463370524347,111.15665179863572,113.15642253495753,114.12325328961015,2.999269826337695,114.908472109586,"[300, 0]",[0.19907407407407407],[0.04814814814814815],[1],[0],[0],[0.7845947463065386],[1],['target_find'],114.90893035195768,115.92363848537207,,,,,,,,,,,,,,,,,,,,,,,,,,,,,,,,859965,001,2023-11-06_13h05.24.783,Selektive Wahrnehmung,2023.2.3,60.04174027322832,2023-11-06 13h06.29.847812 +0100,
schlange2,0,15,15,3,,,,,115.9453596342355,,,,,,,,,,115.9238814022392,115.9453596342355,117.95678383857012,118.92643203027546,3.0029161404818296,119.9912097658962,"[0, -300]",[0.008333333333333333],[-0.20092592592592592],[1],[0],[0],[1.0641966126859188],[1],['target_find'],119.99168450757861,121.00747637823224,,,,,,,,,,,,,,,,,,,,,,,,,,,,,,,,859965,001,2023-11-06_13h05.24.783,Selektive Wahrnehmung,2023.2.3,60.04174027322832,2023-11-06 13h06.29.847812 +0100,
person1,1,0,16,4,,,,,121.04039815627038,,,,,,,,,,121.00805408880115,121.04039815627038,123.03985941596329,124.00672657974064,2.9994086381047964,124.70857399888337,"[-300, 0]",[-0.23055555555555557],[0.032407407407407406],[1],[0],[0],[0.7012216374278069],[1],['target_find'],124.7090464644134,125.72372473031282,,,,,,,,,,,,,,,,,,,,,,,,,,,,,,,,859965,001,2023-11-06_13h05.24.783,Selektive Wahrnehmung,2023.2.3,60.04174027322832,2023-11-06 13h06.29.847812 +0100,
gesicht3,1,1,17,10,,,,,125.75100850313902,,,,,,,,,,125.7240782957524,125.75100850313902,127.7566982768476,128.72645797021687,3.0028652232140303,129.47457479685545,"[0, -300]",[0.018518518518518517],[-0.24444444444444444],[1],[0],[0],[0.747518066316843],[1],['target_find'],129.4750509597361,130.49129424616694,,,,,,,,,,,,,,,,,,,,,,,,,,,,,,,,859965,001,2023-11-06_13h05.24.783,Selektive Wahrnehmung,2023.2.3,60.04174027322832,2023-11-06 13h06.29.847812 +0100,
schlange1,1,2,18,2,,,,,130.52519963867962,,,,,,,,,,130.49203864112496,130.52519963867962,132.53986993990839,133.48975937627256,3.01502045430243,134.15847936458886,"[300, -300]",[0.22407407407407406],[-0.23148148148148148],[1],[0],[0],[0.6517140995711088],[1],['target_find'],134.15897998772562,135.1739711444825,,,,,,,,,,,,,,,,,,,,,,,,,,,,,,,,859965,001,2023-11-06_13h05.24.783,Selektive Wahrnehmung,2023.2.3,60.04174027322832,2023-11-06 13h06.29.847812 +0100,
auto1,1,3,19,12,,,,,135.20505227334797,,,,,,,,,,135.17443706840277,135.20505227334797,137.20645715110004,138.1744874138385,3.0006510969251394,139.05796753242612,"[-300, 300]",[-0.2537037037037037],[0.2212962962962963],[1],[0],[0],[0.8828779458999634],[1],['target_find'],139.0584414191544,140.07425035722554,,,,,,,,,,,,,,,,,,,,,,,,,,,,,,,,859965,001,2023-11-06_13h05.24.783,Selektive Wahrnehmung,2023.2.3,60.04174027322832,2023-11-06 13h06.29.847812 +0100,
gesicht2,1,4,20,9,,,,,140.10402388684452,,,,,,,,,,140.07468470558524,140.10402388684452,142.1066814661026,143.07337853126228,2.999272957444191,143.7746820896864,"[-300, -300]",[-0.17037037037037037],[-0.20185185185185187],[1],[0],[0],[0.7006510403007269],[1],['target_find'],143.77515654452145,144.79042901843786,,,,,,,,,,,,,,,,,,,,,,,,,,,,,,,,859965,001,2023-11-06_13h05.24.783,Selektive Wahrnehmung,2023.2.3,60.04174027322832,2023-11-06 13h06.29.847812 +0100,
schlange2,1,5,21,3,,,,,144.81303934566677,,,,,,,,,,144.79076381213963,144.81303934566677,146.82350155338645,147.78991872258484,2.9995687808841467,148.4084615856409,"[0, -300]",[-0.03333333333333333],[-0.2601851851851852],[1],[0],[0],[0.6180061139166355],[1],['target_find'],148.40896704606712,149.42445029504597,,,,,,,,,,,,,,,,,,,,,,,,,,,,,,,,859965,001,2023-11-06_13h05.24.783,Selektive Wahrnehmung,2023.2.3,60.04174027322832,2023-11-06 13h06.29.847812 +0100,
gesicht4,1,6,22,11,,,,,149.45518013089895,,,,,,,,,,149.42490739934146,149.45518013089895,151.45693374052644,152.42326586134732,3.0153262335807085,153.09207829460502,"[300, 0]",[0.23425925925925925],[-0.009259259259259259],[1],[0],[0],[0.6518455147743225],[1],['target_find'],153.09253454580903,154.10767588950694,,,,,,,,,,,,,,,,,,,,,,,,,,,,,,,,859965,001,2023-11-06_13h05.24.783,Selektive Wahrnehmung,2023.2.3,60.04174027322832,2023-11-06 13h06.29.847812 +0100,
schiff1,1,7,23,14,,,,,154.13839321024716,,,,,,,,,,154.10815774090588,154.13839321024716,156.1403553187847,157.10673209652305,2.9991924576461315,158.49155963398516,"[300, 300]",[0.2638888888888889],[0.19814814814814816],[1],[0],[0],[1.3841878175735474],[1],['target_find'],158.49204006418586,159.50800943002105,,,,,,,,,,,,,,,,,,,,,,,,,,,,,,,,859965,001,2023-11-06_13h05.24.783,Selektive Wahrnehmung,2023.2.3,60.04174027322832,2023-11-06 13h06.29.847812 +0100,
gesicht1,1,8,24,8,,,,,159.5520177744329,,,,,,,,,,159.50871798582375,159.5520177744329,161.5566289294511,162.5091554634273,3.001243881881237,163.275117861107,"[300, -300]",[0.23703703703703705],[-0.20277777777777778],[1],[0],[0],[0.7653889544308186],[1],['target_find'],163.2756233215332,164.29067307338119,,,,,,,,,,,,,,,,,,,,,,,,,,,,,,,,859965,001,2023-11-06_13h05.24.783,Selektive Wahrnehmung,2023.2.3,60.04174027322832,2023-11-06 13h06.29.847812 +0100,
gruppe2,1,9,25,7,,,,,164.31231770664454,,,,,,,,,,164.29094272851944,164.31231770664454,166.32398994639516,167.29084943048656,3.0003094766288996,168.54153878428042,"[0, 300]",[-0.028703703703703703],[0.25092592592592594],[1],[0],[0],[1.2500957157462835],[1],['target_find'],168.54202234372497,169.55779174342752,,,,,,,,,,,,,,,,,,,,,,,,,,,,,,,,859965,001,2023-11-06_13h05.24.783,Selektive Wahrnehmung,2023.2.3,60.04174027322832,2023-11-06 13h06.29.847812 +0100,
flugzeug1,1,10,26,13,,,,,169.58321495726705,,,,,,,,,,169.55838908068836,169.58321495726705,171.59043277427554,172.5578034054488,3.000207645818591,173.22548118419945,"[300, 300]",[0.25277777777777777],[0.25925925925925924],[1],[0],[0],[0.6670255418866873],[1],['target_find'],173.226760905236,174.24122157134116,,,,,,,,,,,,,,,,,,,,,,,,,,,,,,,,859965,001,2023-11-06_13h05.24.783,Selektive Wahrnehmung,2023.2.3,60.04174027322832,2023-11-06 13h06.29.847812 +0100,
person2,1,11,27,5,,,,,174.27025554142892,,,,,,,,,,174.24171622283757,174.27025554142892,176.27361171878874,177.24467474594712,3.00357036665082,178.20830604992807,"[300, -300]",[0.2740740740740741],[-0.23425925925925925],[1],[0],[0],[0.9630493298172951],[1],['target_find'],178.20882687158883,179.2247694991529,,,,,,,,,,,,,,,,,,,,,,,,,,,,,,,,859965,001,2023-11-06_13h05.24.783,Selektive Wahrnehmung,2023.2.3,60.04174027322832,2023-11-06 13h06.29.847812 +0100,
spinne1,1,12,28,0,,,,,179.25918348133564,,,,,,,,,,179.22528804466128,179.25918348133564,181.27369705215096,182.24018248915672,3.015483533963561,183.72476893104613,"[-300, 300]",[-0.31296296296296294],[0.34629629629629627],[1],[0],[0],[1.4840405881404877],[1],['target_find'],183.72523741424084,184.74121303670108,,,,,,,,,,,,,,,,,,,,,,,,,,,,,,,,859965,001,2023-11-06_13h05.24.783,Selektive Wahrnehmung,2023.2.3,60.04174027322832,2023-11-06 13h06.29.847812 +0100,
spinne2,1,13,29,1,,,,,184.96936573646963,,,,,,,,,,184.74164567887783,184.96936573646963,186.97417259030044,187.74599457532167,3.0048887729644775,188.39205360412598,"[-300, 0]",[-0.2537037037037037],[0.016666666666666666],[1],[0],[0],[0.6454969625920057],[1],['target_find'],188.3925582114607,189.4086413551122,,,,,,,,,,,,,,,,,,,,,,,,,,,,,,,,859965,001,2023-11-06_13h05.24.783,Selektive Wahrnehmung,2023.2.3,60.04174027322832,2023-11-06 13h06.29.847812 +0100,
gruppe1,1,14,30,6,,,,,189.44352609477937,,,,,,,,,,189.40947791188955,189.44352609477937,191.45691383071244,192.42345672473311,3.0148867648094893,193.39207237772644,"[0, 300]",[-0.019444444444444445],[0.17592592592592593],[1],[0],[0],[0.9681067783385515],[1],['target_find'],193.39256617613137,194.40786766260862,,,,,,,,,,,,,,,,,,,,,,,,,,,,,,,,859965,001,2023-11-06_13h05.24.783,Selektive Wahrnehmung,2023.2.3,60.04174027322832,2023-11-06 13h06.29.847812 +0100,
zug1,1,15,31,15,,,,,194.43332045711577,,,,,,,,,,194.40844793245196,194.43332045711577,196.4411137085408,197.40691761299968,2.999135285615921,198.5749603342265,"[-300, 300]",[-0.15925925925925927],[0.23981481481481481],[1],[0],[0],[1.1675119455903769],[1],['target_find'],198.57543592900038,199.59079601056874,,,,,,,,,,,,,,,,,,,,,,,,,,,,,,,,859965,001,2023-11-06_13h05.24.783,Selektive Wahrnehmung,2023.2.3,60.04174027322832,2023-11-06 13h06.29.847812 +0100,
person2,2,0,32,5,,,,,199.6143276579678,,,,,,,,,,199.59107505343854,199.6143276579678,201.62409012950957,202.5902498755604,2.9995582550764084,203.17555522546172,"[300, 0]",[0.21388888888888888],[0.001851851851851852],[1],[0],[0],[0.5847114268690348],[1],['target_find'],203.17604674771428,204.19140626117587,,,,,,,,,,,,,,,,,,,,,,,,,,,,,,,,859965,001,2023-11-06_13h05.24.783,Selektive Wahrnehmung,2023.2.3,60.04174027322832,2023-11-06 13h06.29.847812 +0100,
zug1,2,1,33,15,,,,,204.2214136067778,,,,,,,,,,204.1918721832335,204.2214136067778,206.2239471655339,207.20708378590643,2.9991182163357735,208.45858267508447,"[0, -300]",[0.011111111111111112],[-0.2222222222222222],[1],[0],[0],[1.267292182892561],[1],['target_find'],208.45904518291354,209.47470052167773,,,,,,,,,,,,,,,,,,,,,,,,,,,,,,,,859965,001,2023-11-06_13h05.24.783,Selektive Wahrnehmung,2023.2.3,60.04174027322832,2023-11-06 13h06.29.847812 +0100,
gesicht4,2,2,34,11,,,,,209.50562207587063,,,,,,,,,,209.47525291517377,209.50562207587063,211.50725877843797,212.47354538552463,3.0156166534870863,213.22494130581617,"[-300, 300]",[-0.17407407407407408],[0.21203703703703702],[1],[0],[0],[0.7341775503009558],[1],['target_find'],213.22540950402617,214.24198843725026,,,,,,,,,,,,,,,,,,,,,,,,,,,,,,,,859965,001,2023-11-06_13h05.24.783,Selektive Wahrnehmung,2023.2.3,60.04174027322832,2023-11-06 13h06.29.847812 +0100,
gesicht3,2,3,35,10,,,,,214.2786324750632,,,,,,,,,,214.24282670021057,214.2786324750632,216.29043129459023,217.25702795013785,3.01509896107018,218.041758377105,"[300, -300]",[0.25555555555555554],[-0.23796296296296296],[1],[0],[0],[0.7841763254255056],[1],['target_find'],218.04231475293636,219.05787736177444,,,,,,,,,,,,,,,,,,,,,,,,,,,,,,,,859965,001,2023-11-06_13h05.24.783,Selektive Wahrnehmung,2023.2.3,60.04174027322832,2023-11-06 13h06.29.847812 +0100,
gruppe2,2,4,36,7,,,,,219.0820626653731,,,,,,,,,,219.0583225209266,219.0820626653731,221.09055565483868,222.06200808659196,3.004248769953847,223.00852683745325,"[-300, -300]",[-0.275],[-0.2574074074074074],[1],[0],[0],[0.9459253959357738],[1],['target_find'],223.0089981649071,224.02444159053266,,,,,,,,,,,,,,,,,,,,,,,,,,,,,,,,859965,001,2023-11-06_13h05.24.783,Selektive Wahrnehmung,2023.2.3,60.04174027322832,2023-11-06 13h06.29.847812 +0100,
flugzeug1,2,5,37,13,,,,,224.0559633243829,,,,,,,,,,224.02486683800817,224.0559633243829,226.05755707621574,227.02398562431335,2.9996791444718838,227.64230320602655,"[-300, -300]",[-0.1962962962962963],[-0.23703703703703705],[1],[0],[0],[0.6177327614277601],[1],['target_find'],227.6427822113037,228.6587350796908,,,,,,,,,,,,,,,,,,,,,,,,,,,,,,,,859965,001,2023-11-06_13h05.24.783,Selektive Wahrnehmung,2023.2.3,60.04174027322832,2023-11-06 13h06.29.847812 +0100,
schlange2,2,6,38,3,,,,,228.69521812163293,,,,,,,,,,228.65961942262948,228.69521812163293,230.70729171670973,231.67373562417924,3.0150588545948267,232.94233426637948,"[0, -300]",[-0.040740740740740744],[-0.30092592592592593],[1],[0],[0],[1.268026053905487],[1],['target_find'],232.9429421275854,233.9579597376287,,,,,,,,,,,,,,,,,,,,,,,,,,,,,,,,859965,001,2023-11-06_13h05.24.783,Selektive Wahrnehmung,2023.2.3,60.04174027322832,2023-11-06 13h06.29.847812 +0100,
gesicht1,2,7,39,8,,,,,233.98797504603863,,,,,,,,,,233.95844187401235,233.98797504603863,235.990498367697,236.95737320929766,2.9995841402560472,237.94195623882115,"[300, 300]",[0.21944444444444444],[0.17407407407407408],[1],[0],[0],[0.983924251049757],[1],['target_find'],237.94242500513792,238.9580365382135,,,,,,,,,,,,,,,,,,,,,,,,,,,,,,,,859965,001,2023-11-06_13h05.24.783,Selektive Wahrnehmung,2023.2.3,60.04174027322832,2023-11-06 13h06.29.847812 +0100,
spinne2,2,8,40,1,,,,,239.13894332945347,,,,,,,,,,238.95836222916842,239.13894332945347,241.1410482302308,241.95792219042778,2.9999667201191187,242.77530445717275,"[300, 300]",[0.18333333333333332],[0.22870370370370371],[1],[0],[0],[0.8168637212365866],[1],['target_find'],242.7757760696113,243.79094813205302,,,,,,,,,,,,,,,,,,,,,,,,,,,,,,,,859965,001,2023-11-06_13h05.24.783,Selektive Wahrnehmung,2023.2.3,60.04174027322832,2023-11-06 13h06.29.847812 +0100,
gruppe1,2,9,41,6,,,,,243.81318811140954,,,,,,,,,,243.79120811633766,243.81318811140954,245.8242066949606,246.79049102775753,2.999637331813574,247.62528793141246,"[-300, -300]",[-0.25092592592592594],[-0.18703703703703703],[1],[0],[0],[0.8342439401894808],[1],['target_find'],247.62576124817133,248.64199799485505,,,,,,,,,,,,,,,,,,,,,,,,,,,,,,,,859965,001,2023-11-06_13h05.24.783,Selektive Wahrnehmung,2023.2.3,60.04174027322832,2023-11-06 13h06.29.847812 +0100,
schiff1,2,10,42,14,,,,,248.67440065927804,,,,,,,,,,248.64252621121705,248.67440065927804,250.67458953149617,251.65808739699423,3.0162208154797554,252.22500729560852,"[300, 300]",[0.31574074074074077],[0.22777777777777777],[1],[0],[0],[0.5663222782313824],[1],['target_find'],252.22548175230622,253.2416661605239,,,,,,,,,,,,,,,,,,,,,,,,,,,,,,,,859965,001,2023-11-06_13h05.24.783,Selektive Wahrnehmung,2023.2.3,60.04174027322832,2023-11-06 13h06.29.847812 +0100,
schlange1,2,11,43,2,,,,,253.27201739884913,,,,,,,,,,253.24213634990156,253.27201739884913,255.27436692267656,256.24462297558784,3.0030959099531174,256.85862522758543,"[300, 300]",[0.2638888888888889],[0.262037037037037],[1],[0],[0],[0.6133483108133078],[1],['target_find'],256.85936507210135,257.87469955533743,,,,,,,,,,,,,,,,,,,,,,,,,,,,,,,,859965,001,2023-11-06_13h05.24.783,Selektive Wahrnehmung,2023.2.3,60.04174027322832,2023-11-06 13h06.29.847812 +0100,
spinne1,2,12,44,0,,,,,257.8989485744387,,,,,,,,,,257.87516433931887,257.8989485744387,259.9076125137508,260.87391960434616,2.9993557296693325,261.44302632287145,"[0, 300]",[-0.001851851851851852],[0.20092592592592592],[1],[0],[0],[0.5683481022715569],[1],['target_find'],261.44385462999344,262.4584925044328,,,,,,,,,,,,,,,,,,,,,,,,,,,,,,,,859965,001,2023-11-06_13h05.24.783,Selektive Wahrnehmung,2023.2.3,60.04174027322832,2023-11-06 13h06.29.847812 +0100,
person1,2,13,45,4,,,,,262.48979237116873,,,,,,,,,,262.45910918340087,262.48979237116873,264.4909048397094,265.4606284108013,3.0022690258920193,266.0585805121809,"[-300, 0]",[-0.1712962962962963],[0.023148148148148147],[1],[0],[0],[0.5973561890423298],[1],['target_find'],266.05906862206757,267.07498508132994,,,,,,,,,,,,,,,,,,,,,,,,,,,,,,,,859965,001,2023-11-06_13h05.24.783,Selektive Wahrnehmung,2023.2.3,60.04174027322832,2023-11-06 13h06.29.847812 +0100,
gesicht2,2,14,46,9,,,,,267.10352752916515,,,,,,,,,,267.0753523018211,267.10352752916515,269.1078997477889,270.0742534864694,2.99936312623322,270.64236805960536,"[300, 0]",[0.2935185185185185],[0.08148148148148149],[1],[0],[0],[0.5675684362649918],[1],['target_find'],270.64284137636423,271.65840313211083,,,,,,,,,,,,,,,,,,,,,,,,,,,,,,,,859965,001,2023-11-06_13h05.24.783,Selektive Wahrnehmung,2023.2.3,60.04174027322832,2023-11-06 13h06.29.847812 +0100,
auto1,2,15,47,12,,,,,271.6882773563266,,,,,,,,,,271.6589020509273,271.6882773563266,273.69106037542224,274.6604454535991,3.002157524228096,275.3759021926671,"[-300, -300]",[-0.15092592592592594],[-0.1675925925925926],[1],[0],[0],[0.7148773204535246],[1],['target_find'],275.3763652704656,276.3915123026818,,,,,,,,,,,,,,,,,,,,,,,,,,,,,,,,859965,001,2023-11-06_13h05.24.783,Selektive Wahrnehmung,2023.2.3,60.04174027322832,2023-11-06 13h06.29.847812 +0100,
gesicht2,3,0,48,9,,,,,276.42296491749585,,,,,,,,,,276.39198875054717,276.42296491749585,278.4243001062423,279.3920410890132,3.000700304284692,279.99228724837303,"[300, -300]",[0.28703703703703703],[-0.325],[1],[0],[0],[0.5995444320142269],[1],['target_find'],279.9927545916289,281.0079994741827,,,,,,,,,,,,,,,,,,,,,,,,,,,,,,,,859965,001,2023-11-06_13h05.24.783,Selektive Wahrnehmung,2023.2.3,60.04174027322832,2023-11-06 13h06.29.847812 +0100,
schlange2,3,1,49,3,,,,,281.0351973455399,,,,,,,,,,281.0083718150854,281.0351973455399,283.04085725173354,284.00764363259077,2.999785242602229,285.2586839944124,"[-300, 300]",[-0.24722222222222223],[0.2712962962962963],[1],[0],[0],[1.2504401803016663],[1],['target_find'],285.2592139169574,286.2752521187067,,,,,,,,,,,,,,,,,,,,,,,,,,,,,,,,859965,001,2023-11-06_13h05.24.783,Selektive Wahrnehmung,2023.2.3,60.04174027322832,2023-11-06 13h06.29.847812 +0100,
gruppe2,3,2,50,7,,,,,286.3037419449538,,,,,,,,,,286.275688175112,286.3037419449538,288.3078612908721,289.2783625368029,3.0033294409513474,290.10943433456123,"[0, 300]",[0.013888888888888888],[0.20555555555555555],[1],[0],[0],[0.8303729146718979],[1],['target_find'],290.10993495956063,291.1249161604792,,,,,,,,,,,,,,,,,,,,,,,,,,,,,,,,859965,001,2023-11-06_13h05.24.783,Selektive Wahrnehmung,2023.2.3,60.04174027322832,2023-11-06 13h06.29.847812 +0100,
person2,3,3,51,5,,,,,291.1451553441584,,,,,,,,,,291.12516903318465,291.1451553441584,293.1577966939658,294.1241694893688,2.999337526038289,294.7593331001699,"[-300, -300]",[-0.31203703703703706],[-0.3398148148148148],[1],[0],[0],[0.6346123553812504],[1],['target_find'],294.7599418144673,295.77458509244025,,,,,,,,,,,,,,,,,,,,,,,,,,,,,,,,859965,001,2023-11-06_13h05.24.783,Selektive Wahrnehmung,2023.2.3,60.04174027322832,2023-11-06 13h06.29.847812 +0100,
gesicht4,3,4,52,11,,,,,295.7963187582791,,,,,,,,,,295.7748553175479,295.7963187582791,297.80750431120396,298.7745680268854,3.0001479126513004,299.2927236445248,"[-300, 0]",[-0.23981481481481481],[-0.003703703703703704],[1],[0],[0],[0.5175423510372639],[1],['target_find'],299.2931921277195,300.30866257473826,,,,,,,,,,,,,,,,,,,,,,,,,,,,,,,,859965,001,2023-11-06_13h05.24.783,Selektive Wahrnehmung,2023.2.3,60.04174027322832,2023-11-06 13h06.29.847812 +0100,
spinne2,3,5,53,1,,,,,300.49393418990076,,,,,,,,,,300.30909948423505,300.49393418990076,302.5081690046936,303.30903975106776,3.000453121960163,304.60965989902616,"[-300, 300]",[-0.2851851851851852],[0.21388888888888888],[1],[0],[0],[1.3001306187361479],[1],['target_find'],304.6101380530745,305.625083129853,,,,,,,,,,,,,,,,,,,,,,,,,,,,,,,,859965,001,2023-11-06_13h05.24.783,Selektive Wahrnehmung,2023.2.3,60.04174027322832,2023-11-06 13h06.29.847812 +0100,
flugzeug1,3,6,54,13,,,,,305.65887588076293,,,,,,,,,,305.62556384317577,305.65887588076293,307.65779271163046,308.6253374237567,3.00042780674994,309.62550496309996,"[0, 300]",[0.027777777777777776],[0.23148148148148148],[1],[0],[0],[0.9995300937443972],[1],['target_find'],309.62600217573345,310.64180001989007,,,,,,,,,,,,,,,,,,,,,,,,,,,,,,,,859965,001,2023-11-06_13h05.24.783,Selektive Wahrnehmung,2023.2.3,60.04174027322832,2023-11-06 13h06.29.847812 +0100,
schiff1,3,7,55,14,,,,,310.66551570408046,,,,,,,,,,310.6420750785619,310.66551570408046,312.67485036700964,313.64302057772875,3.0013616420328617,314.8765171635896,"[-300, 0]",[-0.18425925925925926],[0.05555555555555555],[1],[0],[0],[1.2329598367214203],[1],['target_find'],314.87698137946427,315.8920234516263,,,,,,,,,,,,,,,,,,,,,,,,,,,,,,,,859965,001,2023-11-06_13h05.24.783,Selektive Wahrnehmung,2023.2.3,60.04174027322832,2023-11-06 13h06.29.847812 +0100,
zug1,3,8,56,15,,,,,315.9237935077399,,,,,,,,,,315.8925493936986,315.9237935077399,317.92463461495936,318.89135215990245,2.999495107680559,319.67534786462784,"[300, -300]",[0.19074074074074074],[-0.2175925925925926],[1],[0],[0],[0.7833795938640833],[1],['target_find'],319.6758123636246,320.69203374907374,,,,,,,,,,,,,,,,,,,,,,,,,,,,,,,,859965,001,2023-11-06_13h05.24.783,Selektive Wahrnehmung,2023.2.3,60.04174027322832,2023-11-06 13h06.29.847812 +0100,
gesicht3,3,9,57,10,,,,,320.7215859796852,,,,,,,,,,320.6924766320735,320.7215859796852,322.72459342703223,323.6912879329175,2.9994706455618143,324.2259089909494,"[-300, -300]",[-0.24814814814814815],[-0.2861111111111111],[1],[0],[0],[0.5339008402079344],[1],['target_find'],324.2263754811138,325.2422196920961,,,,,,,,,,,,,,,,,,,,,,,,,,,,,,,,859965,001,2023-11-06_13h05.24.783,Selektive Wahrnehmung,2023.2.3,60.04174027322832,2023-11-06 13h06.29.847812 +0100,
gruppe1,3,10,58,6,,,,,325.2643717750907,,,,,,,,,,325.2425089739263,325.2643717750907,327.2749676723033,328.24139622040093,2.999317044392228,329.2925962135196,"[-300, 300]",[-0.24166666666666667],[0.2851851851851852],[1],[0],[0],[1.0505770556628704],[1],['target_find'],329.293096838519,330.3082433026284,,,,,,,,,,,,,,,,,,,,,,,,,,,,,,,,859965,001,2023-11-06_13h05.24.783,Selektive Wahrnehmung,2023.2.3,60.04174027322832,2023-11-06 13h06.29.847812 +0100,
gesicht1,3,11,59,8,,,,,330.33426242880523,,,,,,,,,,330.30857012979686,330.33426242880523,332.3411727603525,333.30779273994267,2.9996307883411646,334.04336066171527,"[-300, -300]",[-0.26481481481481484],[-0.2537037037037037],[1],[0],[0],[0.7349768429994583],[1],['target_find'],334.0439019612968,335.05853044986725,,,,,,,,,,,,,,,,,,,,,,,,,,,,,,,,859965,001,2023-11-06_13h05.24.783,Selektive Wahrnehmung,2023.2.3,60.04174027322832,2023-11-06 13h06.29.847812 +0100,
person1,3,12,60,4,,,,,335.08072548545897,,,,,,,,,,335.05894830077887,335.08072548545897,337.0913919247687,338.05797720327973,2.999591251835227,338.92607163637877,"[-300, 300]",[-0.24259259259259258],[0.22592592592592592],[1],[0],[0],[0.8674666602164507],[1],['target_find'],338.9265429638326,339.941935474053,,,,,,,,,,,,,,,,,,,,,,,,,,,,,,,,859965,001,2023-11-06_13h05.24.783,Selektive Wahrnehmung,2023.2.3,60.04174027322832,2023-11-06 13h06.29.847812 +0100,
spinne1,3,13,61,0,,,,,339.9706238415092,,,,,,,,,,339.9423385336995,339.9706238415092,341.97482909075916,342.9413480926305,2.999555978924036,343.64226935617626,"[-300, 0]",[-0.23055555555555557],[-0.000925925925925926],[1],[0],[0],[0.7003244962543249],[1],['target_find'],343.6427395455539,344.6591233499348,,,,,,,,,,,,,,,,,,,,,,,,,,,,,,,,859965,001,2023-11-06_13h05.24.783,Selektive Wahrnehmung,2023.2.3,60.04174027322832,2023-11-06 13h06.29.847812 +0100,
schlange1,3,14,62,2,,,,,344.6898233201355,,,,,,,,,,344.65973433852196,344.6898233201355,346.6914463676512,347.66148965619504,3.0025090985000134,348.19270817004144,"[300, 0]",[0.12314814814814815],[-0.005555555555555556],[1],[0],[0],[0.5305913109332323],[0],['dis6'],348.1931723859161,349.20964664407074,,,,,,,,,,,,,,,,,,,,,,,,,,,,,,,,859965,001,2023-11-06_13h05.24.783,Selektive Wahrnehmung,2023.2.3,60.04174027322832,2023-11-06 13h06.29.847812 +0100,
auto1,3,15,63,12,,,,,349.24587254785,,,,,,,,,,349.2104755192995,349.24587254785,351.25841633044183,352.2249543890357,3.0154610611498356,352.8759798463434,"[300, 0]",[0.3768518518518518],[-0.040740740740740744],[1],[0],[0],[0.6503649726510048],[1],['target_find'],352.8764454834163,353.8931856993586,,,,,,,,,,,,,,,,,,,,,,,,,,,,,,,,859965,001,2023-11-06_13h05.24.783,Selektive Wahrnehmung,2023.2.3,60.04174027322832,2023-11-06 13h06.29.847812 +0100,
auto1,4,0,64,12,,,,,353.93158732913435,,,,,,,,,,353.8940487075597,353.93158732913435,355.9416134804487,356.91300447285175,3.019930562004447,357.7762926220894,"[-300, -300]",[-0.18425925925925926],[-0.24814814814814815],[1],[0],[0],[0.8626768756657839],[1],['target_find'],357.77684416249394,358.79168228805065,,,,,,,,,,,,,,,,,,,,,,,,,,,,,,,,859965,001,2023-11-06_13h05.24.783,Selektive Wahrnehmung,2023.2.3,60.04174027322832,2023-11-06 13h06.29.847812 +0100,
gruppe2,4,1,65,7,,,,,358.8118057027459,,,,,,,,,,358.79195421747863,358.8118057027459,360.824863480404,361.7922688163817,3.000746101140976,363.84282425418496,"[300, 300]",[0.21851851851851853],[0.20925925925925926],[1],[0],[0],[2.049886705353856],[1],['target_find'],363.8432913143188,364.8589369803667,,,,,,,,,,,,,,,,,,,,,,,,,,,,,,,,859965,001,2023-11-06_13h05.24.783,Selektive Wahrnehmung,2023.2.3,60.04174027322832,2023-11-06 13h06.29.847812 +0100,
schlange2,4,2,66,3,,,,,364.89157545007765,,,,,,,,,,364.8594913650304,364.89157545007765,366.8915885351598,367.85796588100493,2.9991321563720703,368.57606768235564,"[-300, 0]",[-0.30092592592592593],[0.012037037037037037],[1],[0],[0],[0.7175312023609877],[1],['target_find'],368.57653047703207,369.5923439655453,,,,,,,,,,,,,,,,,,,,,,,,,,,,,,,,859965,001,2023-11-06_13h05.24.783,Selektive Wahrnehmung,2023.2.3,60.04174027322832,2023-11-06 13h06.29.847812 +0100,
gesicht1,4,3,67,8,,,,,369.624584781006,,,,,,,,,,369.5928997732699,369.624584781006,371.62523360177875,372.59133048541844,2.9990883506834507,373.3764454834163,"[-300, 300]",[-0.17222222222222222],[0.1787037037037037],[1],[0],[0],[0.7845620345324278],[1],['target_find'],373.37693188712,374.3924330547452,,,,,,,,,,,,,,,,,,,,,,,,,,,,,,,,859965,001,2023-11-06_13h05.24.783,Selektive Wahrnehmung,2023.2.3,60.04174027322832,2023-11-06 13h06.29.847812 +0100,
person2,4,4,68,5,,,,,374.41989261657,,,,,,,,,,374.39286029338837,374.41989261657,376.4251989554614,377.3919241800904,2.999650415033102,377.99286125972867,"[-300, -300]",[-0.3],[-0.22314814814814815],[1],[0],[0],[0.6003002040088177],[1],['target_find'],377.99333599954844,379.0091622900218,,,,,,,,,,,,,,,,,,,,,,,,,,,,,,,,859965,001,2023-11-06_13h05.24.783,Selektive Wahrnehmung,2023.2.3,60.04174027322832,2023-11-06 13h06.29.847812 +0100,
spinne1,4,5,69,0,,,,,379.0406936965883,,,,,,,,,,379.0096449945122,379.0406936965883,381.0416551232338,382.00834706798196,2.999331835657358,383.2429015096277,"[0, 300]",[0.03518518518518519],[0.225],[1],[0],[0],[1.2339349184185266],[1],['target_find'],383.2433751113713,384.25929612107575,,,,,,,,,,,,,,,,,,,,,,,,,,,,,,,,859965,001,2023-11-06_13h05.24.783,Selektive Wahrnehmung,2023.2.3,60.04174027322832,2023-11-06 13h06.29.847812 +0100,
gesicht2,4,6,70,9,,,,,384.2903121113777,,,,,,,,,,384.25978849828243,384.2903121113777,386.291896475479,387.25808864831924,3.015488652512431,387.893068222329,"[300, -300]",[0.20277777777777778],[-0.16203703703703703],[1],[0],[0],[0.6178354471921921],[1],['target_find'],387.89356059767306,388.909246372059,,,,,,,,,,,,,,,,,,,,,,,,,,,,,,,,859965,001,2023-11-06_13h05.24.783,Selektive Wahrnehmung,2023.2.3,60.04174027322832,2023-11-06 13h06.29.847812 +0100,
gesicht3,4,7,71,10,,,,,388.9370737224817,,,,,,,,,,388.90969494357705,388.9370737224817,390.94198212213814,391.92978991381824,2.9999707024544477,392.8593872580677,"[-300, 300]",[-0.30185185185185187],[0.3768518518518518],[1],[0],[0],[0.9491945337504148],[1],['target_find'],392.859889306128,393.8754999861121,,,,,,,,,,,,,,,,,,,,,,,,,,,,,,,,859965,001,2023-11-06_13h05.24.783,Selektive Wahrnehmung,2023.2.3,60.04174027322832,2023-11-06 13h06.29.847812 +0100,
zug1,4,8,72,15,,,,,393.89895397797227,,,,,,,,,,393.87584615685046,393.89895397797227,395.9087628144771,396.87482926249504,2.999425135552883,398.226284744218,"[300, 300]",[0.24074074074074073],[0.2759259259259259],[1],[0],[0],[1.3508911412209272],[1],['target_find'],398.22675919905305,399.24239035882056,,,,,,,,,,,,,,,,,,,,,,,,,,,,,,,,859965,001,2023-11-06_13h05.24.783,Selektive Wahrnehmung,2023.2.3,60.04174027322832,2023-11-06 13h06.29.847812 +0100,
person1,4,9,73,4,,,,,399.2715312819928,,,,,,,,,,399.24287562444806,399.2715312819928,401.27497450076044,402.24186840094626,2.9996282290667295,402.859933109954,"[0, -300]",[-0.05277777777777778],[-0.19166666666666668],[1],[0],[0],[0.6174693629145622],[1],['target_find'],402.86042548529804,403.8763194736093,,,,,,,,,,,,,,,,,,,,,,,,,,,,,,,,859965,001,2023-11-06_13h05.24.783,Selektive Wahrnehmung,2023.2.3,60.04174027322832,2023-11-06 13h06.29.847812 +0100,
gesicht4,4,10,74,11,,,,,403.9115606248379,,,,,,,,,,403.87702603824437,403.9115606248379,405.92526608519256,406.87496010772884,3.0155774001032114,407.3935819324106,"[-300, 0]",[-0.2638888888888889],[-0.005555555555555556],[1],[0],[0],[0.5012279525399208],[1],['target_find'],407.3940558191389,408.4093245957047,,,,,,,,,,,,,,,,,,,,,,,,,,,,,,,,859965,001,2023-11-06_13h05.24.783,Selektive Wahrnehmung,2023.2.3,60.04174027322832,2023-11-06 13h06.29.847812 +0100,
flugzeug1,4,11,75,13,,,,,408.4430567584932,,,,,,,,,,408.4098710156977,408.4430567584932,410.4585513845086,411.40922845155,3.0000745244324207,412.9430954437703,"[0, 300]",[-0.01574074074074074],[0.27685185185185185],[1],[0],[0],[1.5332247130572796],[1],['target_find'],412.9435613658279,413.9593208115548,,,,,,,,,,,,,,,,,,,,,,,,,,,,,,,,859965,001,2023-11-06_13h05.24.783,Selektive Wahrnehmung,2023.2.3,60.04174027322832,2023-11-06 13h06.29.847812 +0100,
spinne2,4,12,76,1,,,,,414.13970052450895,,,,,,,,,,413.95970310643315,414.13970052450895,416.141711557284,416.95958307012916,3.000408750027418,418.1101764533669,"[300, 300]",[0.31666666666666665],[0.35462962962962963],[1],[0],[0],[1.1499781254678965],[1],['target_find'],418.1106557454914,419.12599591724575,,,,,,,,,,,,,,,,,,,,,,,,,,,,,,,,859965,001,2023-11-06_13h05.24.783,Selektive Wahrnehmung,2023.2.3,60.04174027322832,2023-11-06 13h06.29.847812 +0100,
schiff1,4,13,77,14,,,,,419.147459641099,,,,,,,,,,419.1262650024146,419.147459641099,421.15890148095787,422.125623293221,2.9998008869588375,422.8102768063545,"[0, 300]",[-0.021296296296296296],[0.1787037037037037],[1],[0],[0],[0.6839156597852707],[1],['target_find'],422.8110684193671,423.82574896141887,,,,,,,,,,,,,,,,,,,,,,,,,,,,,,,,859965,001,2023-11-06_13h05.24.783,Selektive Wahrnehmung,2023.2.3,60.04174027322832,2023-11-06 13h06.29.847812 +0100,
schlange1,4,14,78,2,,,,,423.8473537713289,,,,,,,,,,423.8260294254869,423.8473537713289,425.8586118593812,426.82493828982115,2.999278360977769,427.3601956535131,"[-300, 0]",[-0.34444444444444444],[-0.025925925925925925],[1],[0],[0],[0.5347200445830822],[1],['target_find'],427.36075971089303,428.3758344948292,,,,,,,,,,,,,,,,,,,,,,,,,,,,,,,,859965,001,2023-11-06_13h05.24.783,Selektive Wahrnehmung,2023.2.3,60.04174027322832,2023-11-06 13h06.29.847812 +0100,
gruppe1,4,15,79,6,,,,,428.39908738434315,,,,,,,,,,428.3761308863759,428.39908738434315,430.40886919759214,431.3761314563453,3.000436909496784,431.79360997863114,"[0, 300]",[-0.028703703703703703],[0.2],[1],[0],[0],[0.4168501812964678],[1],['target_find'],431.79407789185643,432.8094228990376,,,,,,,,,,,,,,,,,,,,,,,,,,,,,,,,859965,001,2023-11-06_13h05.24.783,Selektive Wahrnehmung,2023.2.3,60.04174027322832,2023-11-06 13h06.29.847812 +0100,
,,,,,0,0,0,0,438.43284884653986,,,,,,,,,,,,,,,,,,,,,,,,,,,432.828970881179,435.6596575397998,435.6596837081015,438.3758148662746,438.3763820528984,447.54431981407106,1.0,3.0,person1,,,,,,,,,,,,,,,,,,,,,,,859965,001,2023-11-06_13h05.24.783,Selektive Wahrnehmung,2023.2.3,60.04174027322832,2023-11-06 13h06.29.847812 +0100,
,,,,,1,0,1,0,447.58062792010605,,,,,,,,,,,,,,,,,,,,,,,,,,,,,,,447.54489439353347,452.88559042289853,1.0,None,gesicht4,,,,,,,,,,,,,,,,,,,,,,,859965,001,2023-11-06_13h05.24.783,Selektive Wahrnehmung,2023.2.3,60.04174027322832,2023-11-06 13h06.29.847812 +0100,
,,,,,2,0,2,0,452.91897527873516,,,,,,,,,,,,,,,,,,,,,,,,,,,,,,,452.88593232631683,462.10425656475127,1.0,3.0,gesicht2,,,,,,,,,,,,,,,,,,,,,,,859965,001,2023-11-06_13h05.24.783,Selektive Wahrnehmung,2023.2.3,60.04174027322832,2023-11-06 13h06.29.847812 +0100,
,,,,,3,0,3,0,462.13931965082884,,,,,,,,,,,,,,,,,,,,,,,,,,,,,,,462.10457884147763,466.4242855999619,1.0,2.0,schiff1,,,,,,,,,,,,,,,,,,,,,,,859965,001,2023-11-06_13h05.24.783,Selektive Wahrnehmung,2023.2.3,60.04174027322832,2023-11-06 13h06.29.847812 +0100,
,,,,,4,0,4,0,466.460504675284,,,,,,,,,,,,,,,,,,,,,,,,,,,,,,,466.42479447461665,471.91321211867034,1.0,1.0,spinne1,,,,,,,,,,,,,,,,,,,,,,,859965,001,2023-11-06_13h05.24.783,Selektive Wahrnehmung,2023.2.3,60.04174027322832,2023-11-06 13h06.29.847812 +0100,
,,,,,,,,,,,,,,,,,,,,,,,,,,,,,,,,,,,,,,,,,,,,,471.94393029250205,478.2285534851253,20 ,2.0,478.2285748180002,487.01514930836856,5.0,5.0,487.01518173515797,489.70962076075375,489.7096403874457,502.56480618193746,4.0,4.0,2.0,4.0,502.56482922285795,511.5790802501142,2.0,1.0,511.57912291772664,514.5097789689898,,,,,,,,
