Target,trials.thisRepN,trials.thisTrialN,trials.thisN,trials.thisIndex,trials_2.thisRepN,trials_2.thisTrialN,trials_2.thisN,trials_2.thisIndex,thisRow.t,notes,Data_transparency.started,key_resp_data_transp.started,Data_transparency.stopped,key_resp_data_transp.keys,key_resp_data_transp.rt,key_resp_data_transp.duration,instructions.started,instructions.stopped,trial.started,trial.stopped,target_position_x_y,mouse.x,mouse.y,mouse.leftButton,mouse.midButton,mouse.rightButton,mouse.time,mouse.corr,mouse.clicked_name,feedback.started,feedback.stopped,instructions_survey.started,instructions_survey.stopped,instructions_ratings.started,instructions_ratings.stopped,survey_ratings.started,survey_ratings.stopped,furcht.response,liebenswert.response,rated_image,survey_gen.started,survey_gen.stopped,age.text,gender.response,survey_games.started,survey_games.stopped,pc_frequency.response,reaction_games_frequency.response,instructions_neuro.started,instructions_neuro.stopped,survey_neuro.started,survey_neuro.stopped,neuro_1_rev.response,neuro_2.response,neuro_3.response,neuro_4_rev.response,survey_fear.started,survey_fear.stopped,specific_fear_spider.response,specific_fear_snake.response,thanks.started,participant,session,date,expName,psychopyVersion,frameRate,expStart,
,,,,,,,,,,,0.004782200005138293,0.026508000009926036,404.4792696000077,a,404.43115739998757,None,,,,,,,,,,,,,,,,,,,,,,,,,,,,,,,,,,,,,,,,,,,,,,901158,001,2023-11-13_13h56.45.609,Selektive Wahrnehmung,2023.2.2,60.754780949823186,2023-11-13 13h56.54.278748 +0100,
,,,,,,,,,,,,,,,,,404.479293899989,404.4793176999956,,,,,,,,,,,,,,,,,,,,,,,,,,,,,,,,,,,,,,,,,,,,901158,001,2023-11-13_13h56.45.609,Selektive Wahrnehmung,2023.2.2,60.754780949823186,2023-11-13 13h56.54.278748 +0100,
gesicht3,0,0,0,10,,,,,407.6820844000031,,,,,,,,,,404.4855117999832,404.50293590000365,"[-300, 300]",[],[],[],[],[],[],[],[],404.5037033999979,404.508763299993,,,,,,,,,,,,,,,,,,,,,,,,,,,,,,,901158,001,2023-11-13_13h56.45.609,Selektive Wahrnehmung,2023.2.2,60.754780949823186,2023-11-13 13h56.54.278748 +0100,
zug1,0,1,1,15,,,,,407.6820844000031,,,,,,,,,,404.5089655999909,404.5903152000101,"[-300, 300]",[],[],[],[],[],[],[],[],404.59072119998746,404.5959631000005,,,,,,,,,,,,,,,,,,,,,,,,,,,,,,,901158,001,2023-11-13_13h56.45.609,Selektive Wahrnehmung,2023.2.2,60.754780949823186,2023-11-13 13h56.54.278748 +0100,
person2,0,2,2,5,,,,,407.6820844000031,,,,,,,,,,404.5961449999886,404.6158029999933,"[-300, 300]",[],[],[],[],[],[],[],[],404.61619329999667,404.62132849998306,,,,,,,,,,,,,,,,,,,,,,,,,,,,,,,901158,001,2023-11-13_13h56.45.609,Selektive Wahrnehmung,2023.2.2,60.754780949823186,2023-11-13 13h56.54.278748 +0100,
flugzeug1,0,3,3,13,,,,,407.6820844000031,,,,,,,,,,404.62152489999426,404.6388167999976,"[-300, 0]",[],[],[],[],[],[],[],[],404.6392241999856,404.64562840000144,,,,,,,,,,,,,,,,,,,,,,,,,,,,,,,901158,001,2023-11-13_13h56.45.609,Selektive Wahrnehmung,2023.2.2,60.754780949823186,2023-11-13 13h56.54.278748 +0100,
gruppe2,0,4,4,7,,,,,407.6820844000031,,,,,,,,,,404.6458117000002,404.66235299999244,"[-300, 0]",[],[],[],[],[],[],[],[],404.6627521000046,404.6684264999931,,,,,,,,,,,,,,,,,,,,,,,,,,,,,,,901158,001,2023-11-13_13h56.45.609,Selektive Wahrnehmung,2023.2.2,60.754780949823186,2023-11-13 13h56.54.278748 +0100,
gesicht2,0,5,5,9,,,,,407.6820844000031,,,,,,,,,,404.6686187000014,404.68771929998184,"[300, 0]",[],[],[],[],[],[],[],[],404.6881178999902,404.697101400001,,,,,,,,,,,,,,,,,,,,,,,,,,,,,,,901158,001,2023-11-13_13h56.45.609,Selektive Wahrnehmung,2023.2.2,60.754780949823186,2023-11-13 13h56.54.278748 +0100,
person1,0,6,6,4,,,,,407.6820844000031,,,,,,,,,,404.69727639999473,404.71439089998603,"[-300, 300]",[],[],[],[],[],[],[],[],404.7153994999826,404.7239064000023,,,,,,,,,,,,,,,,,,,,,,,,,,,,,,,901158,001,2023-11-13_13h56.45.609,Selektive Wahrnehmung,2023.2.2,60.754780949823186,2023-11-13 13h56.54.278748 +0100,
schlange1,0,7,7,2,,,,,407.6820844000031,,,,,,,,,,404.72409279999556,404.74316250000265,"[300, -300]",[],[],[],[],[],[],[],[],404.74375809999765,404.74945629999274,,,,,,,,,,,,,,,,,,,,,,,,,,,,,,,901158,001,2023-11-13_13h56.45.609,Selektive Wahrnehmung,2023.2.2,60.754780949823186,2023-11-13 13h56.54.278748 +0100,
gesicht1,0,8,8,8,,,,,407.6820844000031,,,,,,,,,,404.7496409000014,404.8368324000039,"[300, 300]",[],[],[],[],[],[],[],[],404.8372299000039,404.84241459998884,,,,,,,,,,,,,,,,,,,,,,,,,,,,,,,901158,001,2023-11-13_13h56.45.609,Selektive Wahrnehmung,2023.2.2,60.754780949823186,2023-11-13 13h56.54.278748 +0100,
schiff1,0,9,9,14,,,,,407.6820844000031,,,,,,,,,,404.8426011999836,404.86617960000876,"[300, -300]",[],[],[],[],[],[],[],[],404.86657859999104,404.87269439999363,,,,,,,,,,,,,,,,,,,,,,,,,,,,,,,901158,001,2023-11-13_13h56.45.609,Selektive Wahrnehmung,2023.2.2,60.754780949823186,2023-11-13 13h56.54.278748 +0100,
spinne1,0,10,10,0,,,,,407.6820844000031,,,,,,,,,,404.8728858999966,404.9736822999839,"[300, -300]",[],[],[],[],[],[],[],[],404.9740929999971,404.98072530000354,,,,,,,,,,,,,,,,,,,,,,,,,,,,,,,901158,001,2023-11-13_13h56.45.609,Selektive Wahrnehmung,2023.2.2,60.754780949823186,2023-11-13 13h56.54.278748 +0100,
auto1,0,11,11,12,,,,,407.6820844000031,,,,,,,,,,404.9809058000101,405.00586179998936,"[0, -300]",[],[],[],[],[],[],[],[],405.006257800007,405.01204669999424,,,,,,,,,,,,,,,,,,,,,,,,,,,,,,,901158,001,2023-11-13_13h56.45.609,Selektive Wahrnehmung,2023.2.2,60.754780949823186,2023-11-13 13h56.54.278748 +0100,
schlange2,0,12,12,3,,,,,407.6820844000031,,,,,,,,,,405.01223120000213,405.12051849998534,"[0, -300]",[],[],[],[],[],[],[],[],405.12092409998877,405.1272946000099,,,,,,,,,,,,,,,,,,,,,,,,,,,,,,,901158,001,2023-11-13_13h56.45.609,Selektive Wahrnehmung,2023.2.2,60.754780949823186,2023-11-13 13h56.54.278748 +0100,
gruppe1,0,13,13,6,,,,,407.6820844000031,,,,,,,,,,405.1274721999944,405.15370140000596,"[0, -300]",[],[],[],[],[],[],[],[],405.15425950000645,405.15954839999904,,,,,,,,,,,,,,,,,,,,,,,,,,,,,,,901158,001,2023-11-13_13h56.45.609,Selektive Wahrnehmung,2023.2.2,60.754780949823186,2023-11-13 13h56.54.278748 +0100,
spinne2,0,14,14,1,,,,,407.6820844000031,,,,,,,,,,405.1597211000044,405.3231278999883,"[0, 300]",[],[],[],[],[],[],[],[],405.32353319998947,405.32900609998615,,,,,,,,,,,,,,,,,,,,,,,,,,,,,,,901158,001,2023-11-13_13h56.45.609,Selektive Wahrnehmung,2023.2.2,60.754780949823186,2023-11-13 13h56.54.278748 +0100,
gesicht4,0,15,15,11,,,,,407.6820844000031,,,,,,,,,,405.32919369998854,405.3609242000093,"[300, -300]",[],[],[],[],[],[],[],[],405.3613228999893,405.3694209000096,,,,,,,,,,,,,,,,,,,,,,,,,,,,,,,901158,001,2023-11-13_13h56.45.609,Selektive Wahrnehmung,2023.2.2,60.754780949823186,2023-11-13 13h56.54.278748 +0100,
zug1,1,0,16,15,,,,,407.6820844000031,,,,,,,,,,405.36960279999766,405.3879382000014,"[-300, -300]",[],[],[],[],[],[],[],[],405.3883370999829,405.3937663999968,,,,,,,,,,,,,,,,,,,,,,,,,,,,,,,901158,001,2023-11-13_13h56.45.609,Selektive Wahrnehmung,2023.2.2,60.754780949823186,2023-11-13 13h56.54.278748 +0100,
spinne2,1,1,17,1,,,,,407.6820844000031,,,,,,,,,,405.39394559999346,405.5441107999941,"[0, 300]",[],[],[],[],[],[],[],[],405.54451479998534,405.55210219998844,,,,,,,,,,,,,,,,,,,,,,,,,,,,,,,901158,001,2023-11-13_13h56.45.609,Selektive Wahrnehmung,2023.2.2,60.754780949823186,2023-11-13 13h56.54.278748 +0100,
flugzeug1,1,2,18,13,,,,,407.6820844000031,,,,,,,,,,405.55229099999997,405.5985645999899,"[0, 300]",[],[],[],[],[],[],[],[],405.5990290000045,405.604562499997,,,,,,,,,,,,,,,,,,,,,,,,,,,,,,,901158,001,2023-11-13_13h56.45.609,Selektive Wahrnehmung,2023.2.2,60.754780949823186,2023-11-13 13h56.54.278748 +0100,
person1,1,3,19,4,,,,,407.6820844000031,,,,,,,,,,405.60475399999996,405.62167779999436,"[-300, 0]",[],[],[],[],[],[],[],[],405.6220706999884,405.6310191999946,,,,,,,,,,,,,,,,,,,,,,,,,,,,,,,901158,001,2023-11-13_13h56.45.609,Selektive Wahrnehmung,2023.2.2,60.754780949823186,2023-11-13 13h56.54.278748 +0100,
schlange2,1,4,20,3,,,,,407.6820844000031,,,,,,,,,,405.63120129998424,405.6476019999827,"[300, -300]",[],[],[],[],[],[],[],[],405.6479954000097,405.65379039998516,,,,,,,,,,,,,,,,,,,,,,,,,,,,,,,901158,001,2023-11-13_13h56.45.609,Selektive Wahrnehmung,2023.2.2,60.754780949823186,2023-11-13 13h56.54.278748 +0100,
gruppe2,1,5,21,7,,,,,407.6820844000031,,,,,,,,,,405.6539919000061,405.6724159999867,"[-300, 0]",[],[],[],[],[],[],[],[],405.6728092999838,405.6787808999943,,,,,,,,,,,,,,,,,,,,,,,,,,,,,,,901158,001,2023-11-13_13h56.45.609,Selektive Wahrnehmung,2023.2.2,60.754780949823186,2023-11-13 13h56.54.278748 +0100,
auto1,1,6,22,12,,,,,407.6820844000031,,,,,,,,,,405.6789630999847,405.7002782000054,"[0, 300]",[],[],[],[],[],[],[],[],405.7006759000069,405.70835219998844,,,,,,,,,,,,,,,,,,,,,,,,,,,,,,,901158,001,2023-11-13_13h56.45.609,Selektive Wahrnehmung,2023.2.2,60.754780949823186,2023-11-13 13h56.54.278748 +0100,
spinne1,1,7,23,0,,,,,407.6820844000031,,,,,,,,,,405.7085393999878,405.72964669999783,"[-300, 300]",[],[],[],[],[],[],[],[],405.730038699985,405.73833309998736,,,,,,,,,,,,,,,,,,,,,,,,,,,,,,,901158,001,2023-11-13_13h56.45.609,Selektive Wahrnehmung,2023.2.2,60.754780949823186,2023-11-13 13h56.54.278748 +0100,
gesicht1,1,8,24,8,,,,,407.6820844000031,,,,,,,,,,405.7385311999824,405.7585243000067,"[-300, 300]",[],[],[],[],[],[],[],[],405.7589330000046,405.76510170000256,,,,,,,,,,,,,,,,,,,,,,,,,,,,,,,901158,001,2023-11-13_13h56.45.609,Selektive Wahrnehmung,2023.2.2,60.754780949823186,2023-11-13 13h56.54.278748 +0100,
gesicht2,1,9,25,9,,,,,407.6820844000031,,,,,,,,,,405.76530400000047,405.7916644999932,"[0, 300]",[],[],[],[],[],[],[],[],405.7925087999902,405.799623400002,,,,,,,,,,,,,,,,,,,,,,,,,,,,,,,901158,001,2023-11-13_13h56.45.609,Selektive Wahrnehmung,2023.2.2,60.754780949823186,2023-11-13 13h56.54.278748 +0100,
schlange1,1,10,26,2,,,,,407.6820844000031,,,,,,,,,,405.7998105000006,405.8147098000045,"[-300, 300]",[],[],[],[],[],[],[],[],405.81510909998906,405.82139559998177,,,,,,,,,,,,,,,,,,,,,,,,,,,,,,,901158,001,2023-11-13_13h56.45.609,Selektive Wahrnehmung,2023.2.2,60.754780949823186,2023-11-13 13h56.54.278748 +0100,
gesicht3,1,11,27,10,,,,,407.6820844000031,,,,,,,,,,405.82159380000667,405.84113600000273,"[300, 300]",[],[],[],[],[],[],[],[],405.8425508000073,405.8500000000058,,,,,,,,,,,,,,,,,,,,,,,,,,,,,,,901158,001,2023-11-13_13h56.45.609,Selektive Wahrnehmung,2023.2.2,60.754780949823186,2023-11-13 13h56.54.278748 +0100,
gruppe1,1,12,28,6,,,,,407.6820844000031,,,,,,,,,,405.85019140000804,405.8699645999877,"[300, 0]",[],[],[],[],[],[],[],[],405.87044910000986,405.87935350000043,,,,,,,,,,,,,,,,,,,,,,,,,,,,,,,901158,001,2023-11-13_13h56.45.609,Selektive Wahrnehmung,2023.2.2,60.754780949823186,2023-11-13 13h56.54.278748 +0100,
schiff1,1,13,29,14,,,,,407.6820844000031,,,,,,,,,,405.8795390999876,405.90494489998673,"[0, 300]",[],[],[],[],[],[],[],[],405.90550160000566,405.91100600000937,,,,,,,,,,,,,,,,,,,,,,,,,,,,,,,901158,001,2023-11-13_13h56.45.609,Selektive Wahrnehmung,2023.2.2,60.754780949823186,2023-11-13 13h56.54.278748 +0100,
person2,1,14,30,5,,,,,407.6820844000031,,,,,,,,,,405.9111864999868,405.9294661000022,"[300, 300]",[],[],[],[],[],[],[],[],405.9298649999837,405.93939270000556,,,,,,,,,,,,,,,,,,,,,,,,,,,,,,,901158,001,2023-11-13_13h56.45.609,Selektive Wahrnehmung,2023.2.2,60.754780949823186,2023-11-13 13h56.54.278748 +0100,
gesicht4,1,15,31,11,,,,,407.6820844000031,,,,,,,,,,405.93958519998705,405.9568190999853,"[0, 300]",[],[],[],[],[],[],[],[],405.9572219999973,405.9638747999852,,,,,,,,,,,,,,,,,,,,,,,,,,,,,,,901158,001,2023-11-13_13h56.45.609,Selektive Wahrnehmung,2023.2.2,60.754780949823186,2023-11-13 13h56.54.278748 +0100,
person2,2,0,32,5,,,,,407.6820844000031,,,,,,,,,,405.96495950000826,406.00148679999984,"[0, -300]",[],[],[],[],[],[],[],[],406.0021341999818,406.02218410000205,,,,,,,,,,,,,,,,,,,,,,,,,,,,,,,901158,001,2023-11-13_13h56.45.609,Selektive Wahrnehmung,2023.2.2,60.754780949823186,2023-11-13 13h56.54.278748 +0100,
gruppe1,2,1,33,6,,,,,407.6820844000031,,,,,,,,,,406.0225288000074,406.07457799999975,"[-300, 300]",[],[],[],[],[],[],[],[],406.0749521999969,406.0809084000066,,,,,,,,,,,,,,,,,,,,,,,,,,,,,,,901158,001,2023-11-13_13h56.45.609,Selektive Wahrnehmung,2023.2.2,60.754780949823186,2023-11-13 13h56.54.278748 +0100,
auto1,2,2,34,12,,,,,407.6820844000031,,,,,,,,,,406.08110569999553,406.09361609999905,"[-300, 300]",[],[],[],[],[],[],[],[],406.0939884999825,406.0999257999938,,,,,,,,,,,,,,,,,,,,,,,,,,,,,,,901158,001,2023-11-13_13h56.45.609,Selektive Wahrnehmung,2023.2.2,60.754780949823186,2023-11-13 13h56.54.278748 +0100,
person1,2,3,35,4,,,,,407.6820844000031,,,,,,,,,,406.1001198999875,406.11236830000416,"[-300, 0]",[],[],[],[],[],[],[],[],406.11273940000683,406.11825309999404,,,,,,,,,,,,,,,,,,,,,,,,,,,,,,,901158,001,2023-11-13_13h56.45.609,Selektive Wahrnehmung,2023.2.2,60.754780949823186,2023-11-13 13h56.54.278748 +0100,
gesicht3,2,4,36,10,,,,,407.6820844000031,,,,,,,,,,406.1184532000043,406.13190449998365,"[-300, -300]",[],[],[],[],[],[],[],[],406.1322660000005,406.13676409999607,,,,,,,,,,,,,,,,,,,,,,,,,,,,,,,901158,001,2023-11-13_13h56.45.609,Selektive Wahrnehmung,2023.2.2,60.754780949823186,2023-11-13 13h56.54.278748 +0100,
gesicht4,2,5,37,11,,,,,407.6820844000031,,,,,,,,,,406.137009099999,406.1482160000014,"[300, 300]",[],[],[],[],[],[],[],[],406.1485804999829,406.1533160999825,,,,,,,,,,,,,,,,,,,,,,,,,,,,,,,901158,001,2023-11-13_13h56.45.609,Selektive Wahrnehmung,2023.2.2,60.754780949823186,2023-11-13 13h56.54.278748 +0100,
flugzeug1,2,6,38,13,,,,,407.6820844000031,,,,,,,,,,406.1534934999945,406.16594330000225,"[0, -300]",[],[],[],[],[],[],[],[],406.1663058999984,406.17226500000106,,,,,,,,,,,,,,,,,,,,,,,,,,,,,,,901158,001,2023-11-13_13h56.45.609,Selektive Wahrnehmung,2023.2.2,60.754780949823186,2023-11-13 13h56.54.278748 +0100,
spinne2,2,7,39,1,,,,,407.6820844000031,,,,,,,,,,406.17247150000185,406.3712836999912,"[-300, 300]",[],[],[],[],[],[],[],[],406.371814299986,406.38025300001027,,,,,,,,,,,,,,,,,,,,,,,,,,,,,,,901158,001,2023-11-13_13h56.45.609,Selektive Wahrnehmung,2023.2.2,60.754780949823186,2023-11-13 13h56.54.278748 +0100,
schlange2,2,8,40,3,,,,,407.6820844000031,,,,,,,,,,406.3806694000086,406.39939390000654,"[300, 0]",[],[],[],[],[],[],[],[],406.3999171000032,406.40859649999766,,,,,,,,,,,,,,,,,,,,,,,,,,,,,,,901158,001,2023-11-13_13h56.45.609,Selektive Wahrnehmung,2023.2.2,60.754780949823186,2023-11-13 13h56.54.278748 +0100,
zug1,2,9,41,15,,,,,407.6820844000031,,,,,,,,,,406.40887489999295,406.4263943999831,"[300, 300]",[],[],[],[],[],[],[],[],406.42701399998623,406.43461949998164,,,,,,,,,,,,,,,,,,,,,,,,,,,,,,,901158,001,2023-11-13_13h56.45.609,Selektive Wahrnehmung,2023.2.2,60.754780949823186,2023-11-13 13h56.54.278748 +0100,
spinne1,2,10,42,0,,,,,407.6820844000031,,,,,,,,,,406.43483650000417,406.45291789999465,"[300, -300]",[],[],[],[],[],[],[],[],406.4536447999999,406.46171360000153,,,,,,,,,,,,,,,,,,,,,,,,,,,,,,,901158,001,2023-11-13_13h56.45.609,Selektive Wahrnehmung,2023.2.2,60.754780949823186,2023-11-13 13h56.54.278748 +0100,
gruppe2,2,11,43,7,,,,,407.6820844000031,,,,,,,,,,406.46197720000055,406.4784335999866,"[300, 0]",[],[],[],[],[],[],[],[],406.47898200000054,406.4873624999891,,,,,,,,,,,,,,,,,,,,,,,,,,,,,,,901158,001,2023-11-13_13h56.45.609,Selektive Wahrnehmung,2023.2.2,60.754780949823186,2023-11-13 13h56.54.278748 +0100,
schlange1,2,12,44,2,,,,,407.6820844000031,,,,,,,,,,406.4876663000032,406.5047408999817,"[-300, 300]",[],[],[],[],[],[],[],[],406.5052357999957,406.5118497000076,,,,,,,,,,,,,,,,,,,,,,,,,,,,,,,901158,001,2023-11-13_13h56.45.609,Selektive Wahrnehmung,2023.2.2,60.754780949823186,2023-11-13 13h56.54.278748 +0100,
gesicht2,2,13,45,9,,,,,407.6820844000031,,,,,,,,,,406.5121993999928,406.5249973000027,"[300, -300]",[],[],[],[],[],[],[],[],406.5253919000097,406.5302911000035,,,,,,,,,,,,,,,,,,,,,,,,,,,,,,,901158,001,2023-11-13_13h56.45.609,Selektive Wahrnehmung,2023.2.2,60.754780949823186,2023-11-13 13h56.54.278748 +0100,
gesicht1,2,14,46,8,,,,,407.6820844000031,,,,,,,,,,406.5304685999872,406.5427875999885,"[300, 0]",[],[],[],[],[],[],[],[],406.54317849999643,406.54845929998555,,,,,,,,,,,,,,,,,,,,,,,,,,,,,,,901158,001,2023-11-13_13h56.45.609,Selektive Wahrnehmung,2023.2.2,60.754780949823186,2023-11-13 13h56.54.278748 +0100,
schiff1,2,15,47,14,,,,,407.6820844000031,,,,,,,,,,406.54868360000546,406.5610633000033,"[0, 300]",[],[],[],[],[],[],[],[],406.5614203999867,406.5678640999831,,,,,,,,,,,,,,,,,,,,,,,,,,,,,,,901158,001,2023-11-13_13h56.45.609,Selektive Wahrnehmung,2023.2.2,60.754780949823186,2023-11-13 13h56.54.278748 +0100,
schiff1,3,0,48,14,,,,,407.6820844000031,,,,,,,,,,406.56819210000685,406.5806910000101,"[0, 300]",[],[],[],[],[],[],[],[],406.5815589999838,406.5867852999945,,,,,,,,,,,,,,,,,,,,,,,,,,,,,,,901158,001,2023-11-13_13h56.45.609,Selektive Wahrnehmung,2023.2.2,60.754780949823186,2023-11-13 13h56.54.278748 +0100,
spinne2,3,1,49,1,,,,,407.6820844000031,,,,,,,,,,406.5869628000073,406.71052389999386,"[-300, -300]",[],[],[],[],[],[],[],[],406.71088530001,406.715260099998,,,,,,,,,,,,,,,,,,,,,,,,,,,,,,,901158,001,2023-11-13_13h56.45.609,Selektive Wahrnehmung,2023.2.2,60.754780949823186,2023-11-13 13h56.54.278748 +0100,
auto1,3,2,50,12,,,,,407.6820844000031,,,,,,,,,,406.71547190001,406.7287660999864,"[-300, 300]",[],[],[],[],[],[],[],[],406.72913200000767,406.7337591999967,,,,,,,,,,,,,,,,,,,,,,,,,,,,,,,901158,001,2023-11-13_13h56.45.609,Selektive Wahrnehmung,2023.2.2,60.754780949823186,2023-11-13 13h56.54.278748 +0100,
person2,3,3,51,5,,,,,407.6820844000031,,,,,,,,,,406.7339421999932,406.7464769000071,"[300, 0]",[],[],[],[],[],[],[],[],406.7468695999996,406.7520081999828,,,,,,,,,,,,,,,,,,,,,,,,,,,,,,,901158,001,2023-11-13_13h56.45.609,Selektive Wahrnehmung,2023.2.2,60.754780949823186,2023-11-13 13h56.54.278748 +0100,
person1,3,4,52,4,,,,,407.6820844000031,,,,,,,,,,406.7521876000101,406.76382180000655,"[300, 0]",[],[],[],[],[],[],[],[],406.76431539998157,406.7691421000054,,,,,,,,,,,,,,,,,,,,,,,,,,,,,,,901158,001,2023-11-13_13h56.45.609,Selektive Wahrnehmung,2023.2.2,60.754780949823186,2023-11-13 13h56.54.278748 +0100,
gesicht1,3,5,53,8,,,,,407.6820844000031,,,,,,,,,,406.7718281999987,406.7850468000106,"[300, -300]",[],[],[],[],[],[],[],[],406.7854056000069,406.78978520000237,,,,,,,,,,,,,,,,,,,,,,,,,,,,,,,901158,001,2023-11-13_13h56.45.609,Selektive Wahrnehmung,2023.2.2,60.754780949823186,2023-11-13 13h56.54.278748 +0100,
gruppe1,3,6,54,6,,,,,407.6820844000031,,,,,,,,,,406.7899838000012,406.8036235999898,"[300, 0]",[],[],[],[],[],[],[],[],406.80405040000915,406.8086803999904,,,,,,,,,,,,,,,,,,,,,,,,,,,,,,,901158,001,2023-11-13_13h56.45.609,Selektive Wahrnehmung,2023.2.2,60.754780949823186,2023-11-13 13h56.54.278748 +0100,
gruppe2,3,7,55,7,,,,,407.6820844000031,,,,,,,,,,406.80889739998383,406.82120700000087,"[-300, -300]",[],[],[],[],[],[],[],[],406.82156099998974,406.82588560000295,,,,,,,,,,,,,,,,,,,,,,,,,,,,,,,901158,001,2023-11-13_13h56.45.609,Selektive Wahrnehmung,2023.2.2,60.754780949823186,2023-11-13 13h56.54.278748 +0100,
zug1,3,8,56,15,,,,,407.6820844000031,,,,,,,,,,406.826069200004,406.83909180000774,"[300, 0]",[],[],[],[],[],[],[],[],406.83944849998807,406.8440067000047,,,,,,,,,,,,,,,,,,,,,,,,,,,,,,,901158,001,2023-11-13_13h56.45.609,Selektive Wahrnehmung,2023.2.2,60.754780949823186,2023-11-13 13h56.54.278748 +0100,
gesicht4,3,9,57,11,,,,,407.6820844000031,,,,,,,,,,406.84417779999785,406.85759279999183,"[300, 0]",[],[],[],[],[],[],[],[],406.8579725000018,406.8625715000089,,,,,,,,,,,,,,,,,,,,,,,,,,,,,,,901158,001,2023-11-13_13h56.45.609,Selektive Wahrnehmung,2023.2.2,60.754780949823186,2023-11-13 13h56.54.278748 +0100,
spinne1,3,10,58,0,,,,,407.6820844000031,,,,,,,,,,406.86292459999095,406.87623739999253,"[-300, 300]",[],[],[],[],[],[],[],[],406.8765879999846,406.8814266999834,,,,,,,,,,,,,,,,,,,,,,,,,,,,,,,901158,001,2023-11-13_13h56.45.609,Selektive Wahrnehmung,2023.2.2,60.754780949823186,2023-11-13 13h56.54.278748 +0100,
gesicht2,3,11,59,9,,,,,407.6820844000031,,,,,,,,,,406.8816860000079,406.89684619999025,"[300, -300]",[],[],[],[],[],[],[],[],406.8972406999965,406.9025230999978,,,,,,,,,,,,,,,,,,,,,,,,,,,,,,,901158,001,2023-11-13_13h56.45.609,Selektive Wahrnehmung,2023.2.2,60.754780949823186,2023-11-13 13h56.54.278748 +0100,
schlange1,3,12,60,2,,,,,407.6820844000031,,,,,,,,,,406.9027233000088,406.91678209998645,"[-300, -300]",[],[],[],[],[],[],[],[],406.91717410000274,406.9225240999949,,,,,,,,,,,,,,,,,,,,,,,,,,,,,,,901158,001,2023-11-13_13h56.45.609,Selektive Wahrnehmung,2023.2.2,60.754780949823186,2023-11-13 13h56.54.278748 +0100,
gesicht3,3,13,61,10,,,,,407.6820844000031,,,,,,,,,,406.9227167000063,406.9380795999896,"[300, 0]",[],[],[],[],[],[],[],[],406.93847500000265,406.94358170000487,,,,,,,,,,,,,,,,,,,,,,,,,,,,,,,901158,001,2023-11-13_13h56.45.609,Selektive Wahrnehmung,2023.2.2,60.754780949823186,2023-11-13 13h56.54.278748 +0100,
schlange2,3,14,62,3,,,,,407.6820844000031,,,,,,,,,,406.9438094999932,406.9585328999965,"[0, 300]",[],[],[],[],[],[],[],[],406.958925599989,406.96403249999275,,,,,,,,,,,,,,,,,,,,,,,,,,,,,,,901158,001,2023-11-13_13h56.45.609,Selektive Wahrnehmung,2023.2.2,60.754780949823186,2023-11-13 13h56.54.278748 +0100,
flugzeug1,3,15,63,13,,,,,407.6820844000031,,,,,,,,,,406.96422659998643,406.9803159000003,"[300, -300]",[],[],[],[],[],[],[],[],406.98068410000997,406.98593550000805,,,,,,,,,,,,,,,,,,,,,,,,,,,,,,,901158,001,2023-11-13_13h56.45.609,Selektive Wahrnehmung,2023.2.2,60.754780949823186,2023-11-13 13h56.54.278748 +0100,
person2,4,0,64,5,,,,,407.6820844000031,,,,,,,,,,406.9861419000081,407.0001421000052,"[300, -300]",[],[],[],[],[],[],[],[],407.00051519999397,407.0054805999971,,,,,,,,,,,,,,,,,,,,,,,,,,,,,,,901158,001,2023-11-13_13h56.45.609,Selektive Wahrnehmung,2023.2.2,60.754780949823186,2023-11-13 13h56.54.278748 +0100,
gesicht1,4,1,65,8,,,,,407.6820844000031,,,,,,,,,,407.00565819998155,407.02147040001,"[300, 300]",[],[],[],[],[],[],[],[],407.0218434999988,407.02713020000374,,,,,,,,,,,,,,,,,,,,,,,,,,,,,,,901158,001,2023-11-13_13h56.45.609,Selektive Wahrnehmung,2023.2.2,60.754780949823186,2023-11-13 13h56.54.278748 +0100,
spinne2,4,2,66,1,,,,,407.6820844000031,,,,,,,,,,407.02737130000605,407.1574247999815,"[0, 300]",[],[],[],[],[],[],[],[],407.1580696000019,407.1670620999939,,,,,,,,,,,,,,,,,,,,,,,,,,,,,,,901158,001,2023-11-13_13h56.45.609,Selektive Wahrnehmung,2023.2.2,60.754780949823186,2023-11-13 13h56.54.278748 +0100,
gesicht3,4,3,67,10,,,,,407.6820844000031,,,,,,,,,,407.16736289998516,407.19662440000684,"[-300, -300]",[],[],[],[],[],[],[],[],407.19726009998703,407.2076926000009,,,,,,,,,,,,,,,,,,,,,,,,,,,,,,,901158,001,2023-11-13_13h56.45.609,Selektive Wahrnehmung,2023.2.2,60.754780949823186,2023-11-13 13h56.54.278748 +0100,
flugzeug1,4,4,68,13,,,,,407.6820844000031,,,,,,,,,,407.2079964999866,407.2311044000089,"[300, -300]",[],[],[],[],[],[],[],[],407.23187869999674,407.2409717999981,,,,,,,,,,,,,,,,,,,,,,,,,,,,,,,901158,001,2023-11-13_13h56.45.609,Selektive Wahrnehmung,2023.2.2,60.754780949823186,2023-11-13 13h56.54.278748 +0100,
gruppe2,4,5,69,7,,,,,407.6820844000031,,,,,,,,,,407.2412433999998,407.26390150000225,"[-300, 300]",[],[],[],[],[],[],[],[],407.26430249999976,407.2700646999874,,,,,,,,,,,,,,,,,,,,,,,,,,,,,,,901158,001,2023-11-13_13h56.45.609,Selektive Wahrnehmung,2023.2.2,60.754780949823186,2023-11-13 13h56.54.278748 +0100,
gruppe1,4,6,70,6,,,,,407.6820844000031,,,,,,,,,,407.2702585000079,407.28573770000366,"[300, 300]",[],[],[],[],[],[],[],[],407.28616099999635,407.2916597999865,,,,,,,,,,,,,,,,,,,,,,,,,,,,,,,901158,001,2023-11-13_13h56.45.609,Selektive Wahrnehmung,2023.2.2,60.754780949823186,2023-11-13 13h56.54.278748 +0100,
gesicht4,4,7,71,11,,,,,407.6820844000031,,,,,,,,,,407.291848199995,407.3064356999821,"[300, 0]",[],[],[],[],[],[],[],[],407.30682649998926,407.312280299986,,,,,,,,,,,,,,,,,,,,,,,,,,,,,,,901158,001,2023-11-13_13h56.45.609,Selektive Wahrnehmung,2023.2.2,60.754780949823186,2023-11-13 13h56.54.278748 +0100,
schlange1,4,8,72,2,,,,,407.6820844000031,,,,,,,,,,407.31245739999576,407.3281061000016,"[300, 0]",[],[],[],[],[],[],[],[],407.3284987999941,407.333876699995,,,,,,,,,,,,,,,,,,,,,,,,,,,,,,,901158,001,2023-11-13_13h56.45.609,Selektive Wahrnehmung,2023.2.2,60.754780949823186,2023-11-13 13h56.54.278748 +0100,
spinne1,4,9,73,0,,,,,407.6820844000031,,,,,,,,,,407.33406439999817,407.34946359999594,"[-300, -300]",[],[],[],[],[],[],[],[],407.3498520999856,407.3554257999931,,,,,,,,,,,,,,,,,,,,,,,,,,,,,,,901158,001,2023-11-13_13h56.45.609,Selektive Wahrnehmung,2023.2.2,60.754780949823186,2023-11-13 13h56.54.278748 +0100,
schlange2,4,10,74,3,,,,,407.6820844000031,,,,,,,,,,407.35560260000057,407.39695460000075,"[300, 300]",[],[],[],[],[],[],[],[],407.3978189000045,407.42621859998326,,,,,,,,,,,,,,,,,,,,,,,,,,,,,,,901158,001,2023-11-13_13h56.45.609,Selektive Wahrnehmung,2023.2.2,60.754780949823186,2023-11-13 13h56.54.278748 +0100,
person1,4,11,75,4,,,,,407.6820844000031,,,,,,,,,,407.4264094999817,407.4593568999844,"[-300, -300]",[],[],[],[],[],[],[],[],407.45979789999546,407.4674231999961,,,,,,,,,,,,,,,,,,,,,,,,,,,,,,,901158,001,2023-11-13_13h56.45.609,Selektive Wahrnehmung,2023.2.2,60.754780949823186,2023-11-13 13h56.54.278748 +0100,
schiff1,4,12,76,14,,,,,407.6820844000031,,,,,,,,,,407.46761150000384,407.47981869999785,"[-300, 0]",[],[],[],[],[],[],[],[],407.4801771999919,407.48563409998314,,,,,,,,,,,,,,,,,,,,,,,,,,,,,,,901158,001,2023-11-13_13h56.45.609,Selektive Wahrnehmung,2023.2.2,60.754780949823186,2023-11-13 13h56.54.278748 +0100,
zug1,4,13,77,15,,,,,407.6820844000031,,,,,,,,,,407.48582609998994,407.4977788999968,"[300, 0]",[],[],[],[],[],[],[],[],407.4981293999881,407.5038770000101,,,,,,,,,,,,,,,,,,,,,,,,,,,,,,,901158,001,2023-11-13_13h56.45.609,Selektive Wahrnehmung,2023.2.2,60.754780949823186,2023-11-13 13h56.54.278748 +0100,
gesicht2,4,14,78,9,,,,,407.6820844000031,,,,,,,,,,407.50405379998847,407.51755759998923,"[0, 300]",[],[],[],[],[],[],[],[],407.51791639998555,407.52198439999484,,,,,,,,,,,,,,,,,,,,,,,,,,,,,,,901158,001,2023-11-13_13h56.45.609,Selektive Wahrnehmung,2023.2.2,60.754780949823186,2023-11-13 13h56.54.278748 +0100,
auto1,4,15,79,12,,,,,407.6820844000031,,,,,,,,,,407.5221445999923,407.53388760000234,"[-300, 300]",[],[],[],[],[],[],[],[],407.5342407999851,407.5382903999998,,,,,,,,,,,,,,,,,,,,,,,,,,,,,,,901158,001,2023-11-13_13h56.45.609,Selektive Wahrnehmung,2023.2.2,60.754780949823186,2023-11-13 13h56.54.278748 +0100,
,,,,,0,0,0,0,407.6820844000031,,,,,,,,,,,,,,,,,,,,,,,407.5466727000021,407.5467510999879,407.54678539998713,407.5468069000053,407.5472233000037,407.56108310000855,None,None,gesicht3,,,,,,,,,,,,,,,,,,,,,,901158,001,2023-11-13_13h56.45.609,Selektive Wahrnehmung,2023.2.2,60.754780949823186,2023-11-13 13h56.54.278748 +0100,
,,,,,1,0,1,0,407.6820844000031,,,,,,,,,,,,,,,,,,,,,,,,,,,407.5613907999941,407.57458939999924,None,None,person1,,,,,,,,,,,,,,,,,,,,,,901158,001,2023-11-13_13h56.45.609,Selektive Wahrnehmung,2023.2.2,60.754780949823186,2023-11-13 13h56.54.278748 +0100,
,,,,,2,0,2,0,407.6820844000031,,,,,,,,,,,,,,,,,,,,,,,,,,,407.57480879998184,407.5878628999926,None,None,person2,,,,,,,,,,,,,,,,,,,,,,901158,001,2023-11-13_13h56.45.609,Selektive Wahrnehmung,2023.2.2,60.754780949823186,2023-11-13 13h56.54.278748 +0100,
,,,,,3,0,3,0,407.6820844000031,,,,,,,,,,,,,,,,,,,,,,,,,,,407.58808660000795,407.6009872999857,None,None,schlange2,,,,,,,,,,,,,,,,,,,,,,901158,001,2023-11-13_13h56.45.609,Selektive Wahrnehmung,2023.2.2,60.754780949823186,2023-11-13 13h56.54.278748 +0100,
,,,,,4,0,4,0,407.6820844000031,,,,,,,,,,,,,,,,,,,,,,,,,,,407.6012058999913,407.61451939999824,None,None,auto1,,,,,,,,,,,,,,,,,,,,,,901158,001,2023-11-13_13h56.45.609,Selektive Wahrnehmung,2023.2.2,60.754780949823186,2023-11-13 13h56.54.278748 +0100,
,,,,,,,,,,,,,,,,,,,,,,,,,,,,,,,,,,,,,,,,,407.6166619999858,407.6232356999826,,None,407.6232503000065,407.6354452999949,None,None,407.63545860000886,407.63548420000006,407.63549069999135,407.6601456000062,None,None,None,None,407.660160600004,407.67238139998517,None,None,407.6723950000014,,,,,,,,
