Target,trials.thisRepN,trials.thisTrialN,trials.thisN,trials.thisIndex,trials_2.thisRepN,trials_2.thisTrialN,trials_2.thisN,trials_2.thisIndex,thisRow.t,notes,Data_transparency.started,key_resp_data_transp.started,Data_transparency.stopped,key_resp_data_transp.keys,key_resp_data_transp.rt,key_resp_data_transp.duration,instructions.started,instructions.stopped,trial.started,target_show.started,target_show.stopped,target_find.started,mouse.started,trial.stopped,target_position_x_y,mouse.x,mouse.y,mouse.leftButton,mouse.midButton,mouse.rightButton,mouse.time,mouse.corr,mouse.clicked_name,feedback.started,feedback.stopped,instructions_survey.started,instructions_survey.stopped,instructions_ratings.started,instructions_ratings.stopped,survey_ratings.started,survey_ratings.stopped,furcht.response,liebenswert.response,rated_image,survey_gen.started,survey_gen.stopped,age.text,gender.response,survey_games.started,survey_games.stopped,pc_frequency.response,reaction_games_frequency.response,instructions_neuro.started,instructions_neuro.stopped,survey_neuro.started,survey_neuro.stopped,neuro_1_rev.response,neuro_2.response,neuro_3.response,neuro_4_rev.response,survey_fear.started,survey_fear.stopped,specific_fear_spider.response,specific_fear_snake.response,thanks.started,participant,session,date,expName,psychopyVersion,frameRate,expStart,
,,,,,,,,,,,0.024180499836802483,0.039160100277513266,8.774743900168687,z,8.728287199977785,None,,,,,,,,,,,,,,,,,,,,,,,,,,,,,,,,,,,,,,,,,,,,,,,,,,903908,001,2023-11-06_13h32.07.227,Selektive Wahrnehmung,2023.2.3,59.9153636521983,2023-11-06 13h32.50.032028 +0100,
,,,,,,,,,,,,,,,,,8.774799600243568,29.95758739998564,,,,,,,,,,,,,,,,,,,,,,,,,,,,,,,,,,,,,,,,,,,,,,,,903908,001,2023-11-06_13h32.07.227,Selektive Wahrnehmung,2023.2.3,59.9153636521983,2023-11-06 13h32.50.032028 +0100,
gesicht3,0,0,0,10,,,,,30.09097129991278,,,,,,,,,,29.972925799898803,30.09097129991278,32.105814800132066,32.98803360015154,3.0306807002052665,34.09071800019592,"[300, 300]",[0.35],[0.24166666666666667],[1],[0],[0],[1.1019804999232292],[1],['target_find'],34.09171599987894,35.10522310016677,,,,,,,,,,,,,,,,,,,,,,,,,,,,,,,903908,001,2023-11-06_13h32.07.227,Selektive Wahrnehmung,2023.2.3,59.9153636521983,2023-11-06 13h32.50.032028 +0100,
person2,0,1,1,5,,,,,35.13783119991422,,,,,,,,,,35.10571540007368,35.13783119991422,37.137606400065124,38.13746090000495,3.0323150996118784,38.92370459996164,"[300, -300]",[0.23148148148148148],[-0.2638888888888889],[1],[0],[0],[0.7854748000390828],[1],['target_find'],38.92471639998257,39.94016660004854,,,,,,,,,,,,,,,,,,,,,,,,,,,,,,,903908,001,2023-11-06_13h32.07.227,Selektive Wahrnehmung,2023.2.3,59.9153636521983,2023-11-06 13h32.50.032028 +0100,
flugzeug1,0,2,2,13,,,,,39.99075279990211,,,,,,,,,,39.940923700109124,39.99075279990211,42.00548020005226,42.97093850001693,3.030860499944538,44.173589000012726,"[0, 300]",[0.05648148148148148],[0.24444444444444444],[1],[0],[0],[1.2017586999572814],[1],['target_find'],44.174759400077164,45.18837109999731,,,,,,,,,,,,,,,,,,,,,,,,,,,,,,,903908,001,2023-11-06_13h32.07.227,Selektive Wahrnehmung,2023.2.3,59.9153636521983,2023-11-06 13h32.50.032028 +0100,
spinne1,0,3,3,0,,,,,45.23729469999671,,,,,,,,,,45.18911290029064,45.23729469999671,47.23726169997826,48.237299100030214,3.049002700019628,49.39006330026314,"[0, -300]",[-0.04537037037037037],[-0.24166666666666667],[1],[0],[0],[1.1520332000218332],[1],['target_find'],49.391236199997365,50.405488800257444,,,,,,,,,,,,,,,,,,,,,,,,,,,,,,,903908,001,2023-11-06_13h32.07.227,Selektive Wahrnehmung,2023.2.3,59.9153636521983,2023-11-06 13h32.50.032028 +0100,
schlange1,0,4,4,2,,,,,50.44011430023238,,,,,,,,,,50.40600540023297,50.44011430023238,52.45493850018829,53.42047460004687,3.0152324996888638,54.12329600006342,"[-300, -300]",[-0.44074074074074077],[-0.3055555555555556],[1],[0],[0],[0.7018976998515427],[],[],54.12416120013222,55.13853200012818,,,,,,,,,,,,,,,,,,,,,,,,,,,,,,,903908,001,2023-11-06_13h32.07.227,Selektive Wahrnehmung,2023.2.3,59.9153636521983,2023-11-06 13h32.50.032028 +0100,
schiff1,0,5,5,14,,,,,55.1731338002719,,,,,,,,,,55.13903800025582,55.1731338002719,57.18812410021201,58.15332360006869,3.0148724000900984,59.1556702000089,"[-300, 300]",[-0.18981481481481483],[0.2537037037037037],[1],[0],[0],[1.0018539000302553],[1],['target_find'],59.15615489985794,60.170867499895394,,,,,,,,,,,,,,,,,,,,,,,,,,,,,,,903908,001,2023-11-06_13h32.07.227,Selektive Wahrnehmung,2023.2.3,59.9153636521983,2023-11-06 13h32.50.032028 +0100,
gesicht4,0,6,6,11,,,,,60.269943200051785,,,,,,,,,,60.171461100224406,60.269943200051785,62.269926900044084,63.219776399899274,2.9990575998090208,64.08862410020083,"[0, -300]",[0.003703703703703704],[-0.23981481481481481],[1],[0],[0],[0.9176964000798762],[1],['target_find'],64.089479399845,65.10501349996775,,,,,,,,,,,,,,,,,,,,,,,,,,,,,,,903908,001,2023-11-06_13h32.07.227,Selektive Wahrnehmung,2023.2.3,59.9153636521983,2023-11-06 13h32.50.032028 +0100,
zug1,0,7,7,15,,,,,65.1560697001405,,,,,,,,,,65.10562760010362,65.1560697001405,67.17104629985988,68.1360956998542,3.0311410003341734,69.18909730017185,"[-300, 300]",[-0.20925925925925926],[0.19907407407407407],[1],[0],[0],[1.0522320000454783],[1],['target_find'],69.1901631001383,70.2035831999965,,,,,,,,,,,,,,,,,,,,,,,,,,,,,,,903908,001,2023-11-06_13h32.07.227,Selektive Wahrnehmung,2023.2.3,59.9153636521983,2023-11-06 13h32.50.032028 +0100,
person1,0,8,8,4,,,,,70.33607169985771,,,,,,,,,,70.20407360000536,70.33607169985771,72.33604810014367,73.23616079986095,3.0326636997051537,73.90508170006797,"[300, 300]",[0.1824074074074074],[0.21296296296296297],[1],[0],[0],[0.6682028002105653],[1],['target_find'],73.90600549988449,74.92021320015192,,,,,,,,,,,,,,,,,,,,,,,,,,,,,,,903908,001,2023-11-06_13h32.07.227,Selektive Wahrnehmung,2023.2.3,59.9153636521983,2023-11-06 13h32.50.032028 +0100,
spinne2,0,9,9,1,,,,,75.11938899988309,,,,,,,,,,74.92073090001941,75.11938899988309,77.12056740000844,77.96931690024212,3.0491828001104295,78.65373020013794,"[0, 300]",[0.07314814814814814],[0.2814814814814815],[1],[0],[0],[0.6838707001879811],[1],['target_find'],78.6542162001133,79.66972430003807,,,,,,,,,,,,,,,,,,,,,,,,,,,,,,,903908,001,2023-11-06_13h32.07.227,Selektive Wahrnehmung,2023.2.3,59.9153636521983,2023-11-06 13h32.50.032028 +0100,
gruppe1,0,10,10,6,,,,,79.71921120025218,,,,,,,,,,79.67020629998296,79.71921120025218,81.7188404998742,82.71908059995621,3.049449299927801,83.85572599992156,"[300, -300]",[0.22407407407407406],[-0.2518518518518518],[1],[0],[0],[1.1356989997439086],[1],['target_find'],83.85712820012122,84.86972679989412,,,,,,,,,,,,,,,,,,,,,,,,,,,,,,,903908,001,2023-11-06_13h32.07.227,Selektive Wahrnehmung,2023.2.3,59.9153636521983,2023-11-06 13h32.50.032028 +0100,
auto1,0,11,11,12,,,,,84.90547630004585,,,,,,,,,,84.87027190020308,84.90547630004585,86.9201155998744,87.90207810001448,3.0324085000902414,88.77099779993296,"[300, 300]",[0.32407407407407407],[0.23148148148148148],[1],[0],[0],[0.8681328999809921],[1],['target_find'],88.77209350001067,89.7860322999768,,,,,,,,,,,,,,,,,,,,,,,,,,,,,,,903908,001,2023-11-06_13h32.07.227,Selektive Wahrnehmung,2023.2.3,59.9153636521983,2023-11-06 13h32.50.032028 +0100,
gesicht2,0,12,12,9,,,,,89.81868360005319,,,,,,,,,,89.7865112000145,89.81868360005319,91.81860009999946,92.81854010000825,3.032724399585277,93.4881682000123,"[300, 0]",[0.25277777777777777],[0.004629629629629629],[1],[0],[0],[0.6684404001571238],[1],['target_find'],93.48944200016558,94.5041853999719,,,,,,,,,,,,,,,,,,,,,,,,,,,,,,,903908,001,2023-11-06_13h32.07.227,Selektive Wahrnehmung,2023.2.3,59.9153636521983,2023-11-06 13h32.50.032028 +0100,
gesicht1,0,13,13,8,,,,,94.53832460008562,,,,,,,,,,94.50494110025465,94.53832460008562,96.55284320004284,97.53464670013636,3.0305139999836683,98.28743260027841,"[0, 300]",[0.011111111111111112],[0.20462962962962963],[1],[0],[0],[0.752078500110656],[1],['target_find'],98.28845830028877,99.30222359998152,,,,,,,,,,,,,,,,,,,,,,,,,,,,,,,903908,001,2023-11-06_13h32.07.227,Selektive Wahrnehmung,2023.2.3,59.9153636521983,2023-11-06 13h32.50.032028 +0100,
gruppe2,0,14,14,7,,,,,99.3349788999185,,,,,,,,,,99.30267019988969,99.3349788999185,101.33485700003803,102.31786559987813,3.015705400146544,103.1033188002184,"[300, 300]",[0.2564814814814815],[0.1935185185185185],[1],[0],[0],[0.784912200178951],[1],['target_find'],103.10394510021433,104.12016850011423,,,,,,,,,,,,,,,,,,,,,,,,,,,,,,,903908,001,2023-11-06_13h32.07.227,Selektive Wahrnehmung,2023.2.3,59.9153636521983,2023-11-06 13h32.50.032028 +0100,
schlange2,0,15,15,3,,,,,104.15427519986406,,,,,,,,,,104.12074550008401,104.15427519986406,106.1679179999046,107.1510435002856,3.030928799882531,108.73743969993666,"[-300, 300]",[-0.25555555555555554],[0.25555555555555554],[1],[0],[0],[1.5855718003585935],[1],['target_find'],108.73850279999897,109.75156640028581,,,,,,,,,,,,,,,,,,,,,,,,,,,,,,,903908,001,2023-11-06_13h32.07.227,Selektive Wahrnehmung,2023.2.3,59.9153636521983,2023-11-06 13h32.50.032028 +0100,
schiff1,1,0,16,14,,,,,109.78434280026704,,,,,,,,,,109.75186569988728,109.78434280026704,111.78432499989867,112.76737389992923,3.015878399834037,114.12090349989012,"[-300, -300]",[-0.20185185185185187],[-0.26296296296296295],[1],[0],[0],[1.3527653999626637],[1],['target_find'],114.12202010024339,115.13531950023025,,,,,,,,,,,,,,,,,,,,,,,,,,,,,,,903908,001,2023-11-06_13h32.07.227,Selektive Wahrnehmung,2023.2.3,59.9153636521983,2023-11-06 13h32.50.032028 +0100,
spinne1,1,1,17,0,,,,,115.1704883002676,,,,,,,,,,115.13597860001028,115.1704883002676,117.18501370027661,118.1504911002703,3.015235799830407,118.87055790005252,"[-300, 0]",[-0.35648148148148145],[0.03796296296296296],[1],[0],[0],[0.7191933998838067],[1],['target_find'],118.87198630021885,119.88488999987021,,,,,,,,,,,,,,,,,,,,,,,,,,,,,,,903908,001,2023-11-06_13h32.07.227,Selektive Wahrnehmung,2023.2.3,59.9153636521983,2023-11-06 13h32.50.032028 +0100,
auto1,1,2,18,12,,,,,119.93404200021178,,,,,,,,,,119.88549320027232,119.93404200021178,121.93399790022522,122.91693310020491,2.9991922001354396,124.07087700022385,"[-300, -300]",[-0.2824074074074074],[-0.27037037037037037],[1],[0],[0],[1.1855089999735355],[1],['target_find'],124.07228490011767,125.08442070009187,,,,,,,,,,,,,,,,,,,,,,,,,,,,,,,903908,001,2023-11-06_13h32.07.227,Selektive Wahrnehmung,2023.2.3,59.9153636521983,2023-11-06 13h32.50.032028 +0100,
gruppe2,1,3,19,7,,,,,125.1203415999189,,,,,,,,,,125.08471149997786,125.1203415999189,127.1348752998747,128.10026219999418,3.0159458997659385,129.3349868999794,"[0, 300]",[0.05277777777777778],[0.19814814814814816],[1],[0],[0],[1.234172800090164],[1],['target_find'],129.33551200013608,130.35141969984397,,,,,,,,,,,,,,,,,,,,,,,,,,,,,,,903908,001,2023-11-06_13h32.07.227,Selektive Wahrnehmung,2023.2.3,59.9153636521983,2023-11-06 13h32.50.032028 +0100,
gesicht1,1,4,20,8,,,,,130.40020060027018,,,,,,,,,,130.352141499985,130.40020060027018,132.40014960011467,133.38337549986318,3.032025699969381,134.18810900021344,"[-300, 300]",[-0.3055555555555556],[0.21944444444444444],[1],[0],[0],[0.803816800005734],[1],['target_find'],134.18951820023358,135.20077060023323,,,,,,,,,,,,,,,,,,,,,,,,,,,,,,,903908,001,2023-11-06_13h32.07.227,Selektive Wahrnehmung,2023.2.3,59.9153636521983,2023-11-06 13h32.50.032028 +0100,
gesicht3,1,5,21,10,,,,,135.23637939989567,,,,,,,,,,135.20122560020536,135.23637939989567,137.25074080005288,138.21674010017887,3.016054700128734,139.2027112999931,"[300, -300]",[0.4009259259259259],[-0.33796296296296297],[1],[0],[0],[0.9850405999459326],[1],['target_find'],139.20412710029632,140.21725369989872,,,,,,,,,,,,,,,,,,,,,,,,,,,,,,,903908,001,2023-11-06_13h32.07.227,Selektive Wahrnehmung,2023.2.3,59.9153636521983,2023-11-06 13h32.50.032028 +0100,
zug1,1,6,22,15,,,,,140.2497538002208,,,,,,,,,,140.21781550021842,140.2497538002208,142.24977470003068,143.2329454002902,3.0157731999643147,144.56755260005593,"[300, 300]",[0.23703703703703705],[0.1712962962962963],[1],[0],[0],[1.3341128001920879],[1],['target_find'],144.56807989999652,145.58483970025554,,,,,,,,,,,,,,,,,,,,,,,,,,,,,,,903908,001,2023-11-06_13h32.07.227,Selektive Wahrnehmung,2023.2.3,59.9153636521983,2023-11-06 13h32.50.032028 +0100,
gesicht4,1,7,23,11,,,,,145.6191521002911,,,,,,,,,,145.58532520011067,145.6191521002911,147.63367759995162,148.59937770012766,3.014627800323069,149.6189712001942,"[-300, 0]",[-0.15185185185185185],[0.03425925925925926],[1],[0],[0],[1.0187985999509692],[1],['target_find'],149.6201280001551,150.63359560025856,,,,,,,,,,,,,,,,,,,,,,,,,,,,,,,903908,001,2023-11-06_13h32.07.227,Selektive Wahrnehmung,2023.2.3,59.9153636521983,2023-11-06 13h32.50.032028 +0100,
person1,1,8,24,4,,,,,150.66617520013824,,,,,,,,,,150.63413729984313,150.66617520013824,152.6656284001656,153.6493013999425,3.015785800293088,154.43488309998065,"[0, 300]",[0.06759259259259259],[0.3453703703703704],[1],[0],[0],[0.7847865000367165],[1],['target_find'],154.43596270028502,155.45056630019099,,,,,,,,,,,,,,,,,,,,,,,,,,,,,,,903908,001,2023-11-06_13h32.07.227,Selektive Wahrnehmung,2023.2.3,59.9153636521983,2023-11-06 13h32.50.032028 +0100,
gruppe1,1,9,25,6,,,,,155.48544860025868,,,,,,,,,,155.45115619990975,155.48544860025868,157.50023590028286,158.46535449987277,3.0148486997932196,159.2180003998801,"[300, 0]",[0.19074074074074074],[-0.04351851851851852],[1],[0],[0],[0.7519518001936376],[1],['target_find'],159.2189004998654,160.2331492002122,,,,,,,,,,,,,,,,,,,,,,,,,,,,,,,903908,001,2023-11-06_13h32.07.227,Selektive Wahrnehmung,2023.2.3,59.9153636521983,2023-11-06 13h32.50.032028 +0100,
spinne2,1,10,26,1,,,,,160.43221550015733,,,,,,,,,,160.23373829992488,160.43221550015733,162.43212420027703,163.2820959002711,2.999114000238478,164.66835789987817,"[0, -300]",[-0.05648148148148148],[-0.19722222222222222],[1],[0],[0],[1.4349809996783733],[1],['target_find'],164.66953000007197,165.68337110010907,,,,,,,,,,,,,,,,,,,,,,,,,,,,,,,903908,001,2023-11-06_13h32.07.227,Selektive Wahrnehmung,2023.2.3,59.9153636521983,2023-11-06 13h32.50.032028 +0100,
person2,1,11,27,5,,,,,165.73203389998525,,,,,,,,,,165.68362209992483,165.73203389998525,167.73299340019003,168.74984969990328,3.0666632996872067,169.41750450013205,"[0, -300]",[-0.022222222222222223],[-0.2935185185185185],[1],[0],[0],[0.6667272998020053],[1],['target_find'],169.41869230009615,170.4326932001859,,,,,,,,,,,,,,,,,,,,,,,,,,,,,,,903908,001,2023-11-06_13h32.07.227,Selektive Wahrnehmung,2023.2.3,59.9153636521983,2023-11-06 13h32.50.032028 +0100,
flugzeug1,1,12,28,13,,,,,170.46517790015787,,,,,,,,,,170.43326399987563,170.46517790015787,172.4650131999515,173.4649419002235,2.9990466996096075,174.05070340028033,"[300, 0]",[0.23703703703703705],[-0.008333333333333333],[1],[0],[0],[0.6181691000238061],[1],['target_find'],174.05118460021913,175.06583409989253,,,,,,,,,,,,,,,,,,,,,,,,,,,,,,,903908,001,2023-11-06_13h32.07.227,Selektive Wahrnehmung,2023.2.3,59.9153636521983,2023-11-06 13h32.50.032028 +0100,
schlange2,1,13,29,3,,,,,175.09824910014868,,,,,,,,,,175.0664436998777,175.09824910014868,177.09837470017374,178.08127290010452,3.0155797000043094,179.74951749993488,"[300, 0]",[0.2638888888888889],[0.006481481481481481],[1],[0],[0],[1.6676376000978053],[1],['target_find'],179.75005070026964,180.76540220016614,,,,,,,,,,,,,,,,,,,,,,,,,,,,,,,903908,001,2023-11-06_13h32.07.227,Selektive Wahrnehmung,2023.2.3,59.9153636521983,2023-11-06 13h32.50.032028 +0100,
schlange1,1,14,30,2,,,,,180.79806549986824,,,,,,,,,,180.76589900022373,180.79806549986824,182.79797470010817,183.78126450022683,3.0160942999646068,184.51743309991434,"[0, 300]",[-0.014814814814814815],[0.2759259259259259],[1],[0],[0],[0.7351342998445034],[1],['target_find'],184.51859280001372,185.53196569997817,,,,,,,,,,,,,,,,,,,,,,,,,,,,,,,903908,001,2023-11-06_13h32.07.227,Selektive Wahrnehmung,2023.2.3,59.9153636521983,2023-11-06 13h32.50.032028 +0100,
gesicht2,1,15,31,9,,,,,185.5643750000745,,,,,,,,,,185.53245729999617,185.5643750000745,187.56441579991952,188.54777170019224,3.015890299808234,189.25009830016643,"[300, 300]",[0.2564814814814815],[0.17592592592592593],[1],[0],[0],[0.7015311000868678],[1],['target_find'],189.251264099963,190.26691520027816,,,,,,,,,,,,,,,,,,,,,,,,,,,,,,,903908,001,2023-11-06_13h32.07.227,Selektive Wahrnehmung,2023.2.3,59.9153636521983,2023-11-06 13h32.50.032028 +0100,
spinne1,2,0,32,0,,,,,190.31734499987215,,,,,,,,,,190.2677127001807,190.31734499987215,192.33206829987466,193.29853340005502,3.0316725997254252,194.15030100010335,"[0, -300]",[-0.006481481481481481],[-0.19722222222222222],[1],[0],[0],[0.850987299811095],[1],['target_find'],194.15147429984063,195.16587179992348,,,,,,,,,,,,,,,,,,,,,,,,,,,,,,,903908,001,2023-11-06_13h32.07.227,Selektive Wahrnehmung,2023.2.3,59.9153636521983,2023-11-06 13h32.50.032028 +0100,
auto1,2,1,33,12,,,,,195.2172195999883,,,,,,,,,,195.16622210014611,195.2172195999883,197.2312082001008,198.18040050007403,3.014602200128138,199.2167843999341,"[300, -300]",[0.24259259259259258],[-0.225],[1],[0],[0],[1.0354840997606516],[1],['target_find'],199.21819140017033,200.23164670029655,,,,,,,,,,,,,,,,,,,,,,,,,,,,,,,903908,001,2023-11-06_13h32.07.227,Selektive Wahrnehmung,2023.2.3,59.9153636521983,2023-11-06 13h32.50.032028 +0100,
flugzeug1,2,2,34,13,,,,,200.26370819984004,,,,,,,,,,200.23234950006008,200.26370819984004,202.26389320008457,203.26367849996313,3.0321035999804735,204.0150251002051,"[300, 0]",[0.3],[0.001851851851851852],[1],[0],[0],[0.7507684999145567],[1],['target_find'],204.01554819988087,205.03256369987503,,,,,,,,,,,,,,,,,,,,,,,,,,,,,,,903908,001,2023-11-06_13h32.07.227,Selektive Wahrnehmung,2023.2.3,59.9153636521983,2023-11-06 13h32.50.032028 +0100,
person2,2,3,35,5,,,,,205.0834113000892,,,,,,,,,,205.033168700058,205.0834113000892,207.09771930007264,208.0471018999815,3.014770000241697,208.8160395002924,"[0, 300]",[0.062037037037037036],[0.21574074074074073],[1],[0],[0],[0.7678971001878381],[1],['target_find'],208.81717720022425,209.8309194999747,,,,,,,,,,,,,,,,,,,,,,,,,,,,,,,903908,001,2023-11-06_13h32.07.227,Selektive Wahrnehmung,2023.2.3,59.9153636521983,2023-11-06 13h32.50.032028 +0100,
gesicht1,2,4,36,8,,,,,209.86346830008551,,,,,,,,,,209.8315250002779,209.86346830008551,211.8633610000834,212.8465414000675,3.0158102000132203,213.74761829990894,"[0, -300]",[0.027777777777777776],[-0.2638888888888889],[1],[0],[0],[0.9004529998637736],[1],['target_find'],213.74810210010037,214.76560920011252,,,,,,,,,,,,,,,,,,,,,,,,,,,,,,,903908,001,2023-11-06_13h32.07.227,Selektive Wahrnehmung,2023.2.3,59.9153636521983,2023-11-06 13h32.50.032028 +0100,
gesicht3,2,5,37,10,,,,,214.81618290022016,,,,,,,,,,214.76634910004213,214.81618290022016,216.82997770002112,217.7964931000024,3.0309631996788085,218.41589190019295,"[0, -300]",[0.017592592592592594],[-0.22870370370370371],[1],[0],[0],[0.6185981999151409],[1],['target_find'],218.41695840004832,219.43080540001392,,,,,,,,,,,,,,,,,,,,,,,,,,,,,,,903908,001,2023-11-06_13h32.07.227,Selektive Wahrnehmung,2023.2.3,59.9153636521983,2023-11-06 13h32.50.032028 +0100,
gesicht4,2,6,38,11,,,,,219.47958640009165,,,,,,,,,,219.43148369994015,219.47958640009165,221.47964180028066,222.46298700012267,3.0324220997281373,223.44900320004672,"[300, 300]",[0.33240740740740743],[0.25277777777777777],[1],[0],[0],[0.9850021996535361],[1],['target_find'],223.45015860022977,224.46447789995,,,,,,,,,,,,,,,,,,,,,,,,,,,,,,,903908,001,2023-11-06_13h32.07.227,Selektive Wahrnehmung,2023.2.3,59.9153636521983,2023-11-06 13h32.50.032028 +0100,
schlange1,2,7,39,2,,,,,224.53073140000924,,,,,,,,,,224.46527240006253,224.53073140000924,226.5473429998383,227.49595959996805,3.0315490001812577,228.2474040002562,"[300, 0]",[0.25833333333333336],[-0.03148148148148148],[1],[0],[0],[0.7508704997599125],[1],['target_find'],228.24797839997336,229.26368990028277,,,,,,,,,,,,,,,,,,,,,,,,,,,,,,,903908,001,2023-11-06_13h32.07.227,Selektive Wahrnehmung,2023.2.3,59.9153636521983,2023-11-06 13h32.50.032028 +0100,
gesicht2,2,8,40,9,,,,,229.29580989992246,,,,,,,,,,229.264324599877,229.29580989992246,231.29585190024227,232.2958635999821,3.0323915001936257,232.88218990014866,"[0, 300]",[0.06574074074074074],[0.19166666666666668],[1],[0],[0],[0.5852701999247074],[1],['target_find'],232.8834203002043,233.89584789983928,,,,,,,,,,,,,,,,,,,,,,,,,,,,,,,903908,001,2023-11-06_13h32.07.227,Selektive Wahrnehmung,2023.2.3,59.9153636521983,2023-11-06 13h32.50.032028 +0100,
schlange2,2,9,41,3,,,,,233.93001249991357,,,,,,,,,,233.89608879992738,233.93001249991357,235.92920800019056,236.91242960002273,3.0168395000509918,238.83174850000069,"[-300, 300]",[-0.2490740740740741],[0.25092592592592594],[1],[0],[0],[1.9182691997848451],[1],['target_find'],238.83292250009254,239.84666270017624,,,,,,,,,,,,,,,,,,,,,,,,,,,,,,,903908,001,2023-11-06_13h32.07.227,Selektive Wahrnehmung,2023.2.3,59.9153636521983,2023-11-06 13h32.50.032028 +0100,
zug1,2,10,42,15,,,,,239.87882750015706,,,,,,,,,,239.84741580020636,239.87882750015706,241.87875739997253,242.87864329991862,3.0320497998036444,243.64657199988142,"[300, 0]",[0.24074074074074073],[-0.05462962962962963],[1],[0],[0],[0.7673799996264279],[1],['target_find'],243.64710729988292,244.66272540017962,,,,,,,,,,,,,,,,,,,,,,,,,,,,,,,903908,001,2023-11-06_13h32.07.227,Selektive Wahrnehmung,2023.2.3,59.9153636521983,2023-11-06 13h32.50.032028 +0100,
gruppe2,2,11,43,7,,,,,244.6953309001401,,,,,,,,,,244.66325900005177,244.6953309001401,246.69511369988322,247.67810419993475,3.0154414996504784,248.93152850028127,"[-300, 300]",[-0.19074074074074074],[0.2462962962962963],[1],[0],[0],[1.2526495000347495],[1],['target_find'],248.93267810018733,249.94649040000513,,,,,,,,,,,,,,,,,,,,,,,,,,,,,,,903908,001,2023-11-06_13h32.07.227,Selektive Wahrnehmung,2023.2.3,59.9153636521983,2023-11-06 13h32.50.032028 +0100,
spinne2,2,12,44,1,,,,,250.1616735998541,,,,,,,,,,249.9472660999745,250.1616735998541,252.16163460025564,252.97793779987842,3.031499299686402,254.2134819002822,"[-300, -300]",[-0.3768518518518518],[-0.3148148148148148],[1],[0],[0],[1.23491430003196],[1],['target_find'],254.2144273999147,255.2289165998809,,,,,,,,,,,,,,,,,,,,,,,,,,,,,,,903908,001,2023-11-06_13h32.07.227,Selektive Wahrnehmung,2023.2.3,59.9153636521983,2023-11-06 13h32.50.032028 +0100,
person1,2,13,45,4,,,,,255.27782920002937,,,,,,,,,,255.2294288002886,255.27782920002937,257.27806860022247,258.27768780011684,2.999016399960965,259.0147279999219,"[300, -300]",[0.32314814814814813],[-0.33240740740740743],[1],[0],[0],[0.7857471001334488],[1],['target_find'],259.01612940011546,260.0304817999713,,,,,,,,,,,,,,,,,,,,,,,,,,,,,,,903908,001,2023-11-06_13h32.07.227,Selektive Wahrnehmung,2023.2.3,59.9153636521983,2023-11-06 13h32.50.032028 +0100,
schiff1,2,14,46,14,,,,,260.0809097001329,,,,,,,,,,260.0312193999998,260.0809097001329,262.09555120021105,263.0611767000519,3.030785800423473,264.0138603998348,"[-300, -300]",[-0.2101851851851852],[-0.2537037037037037],[1],[0],[0],[0.951878999825567],[1],['target_find'],264.01501670014113,265.0284549999051,,,,,,,,,,,,,,,,,,,,,,,,,,,,,,,903908,001,2023-11-06_13h32.07.227,Selektive Wahrnehmung,2023.2.3,59.9153636521983,2023-11-06 13h32.50.032028 +0100,
gruppe1,2,15,47,6,,,,,265.0775549001992,,,,,,,,,,265.0289945001714,265.0775549001992,267.0775287002325,268.0443212999962,3.016094599850476,268.8301913002506,"[-300, 0]",[-0.19814814814814816],[-0.021296296296296296],[1],[0],[0],[0.7848745998926461],[1],['target_find'],268.8312837998383,269.845246899873,,,,,,,,,,,,,,,,,,,,,,,,,,,,,,,903908,001,2023-11-06_13h32.07.227,Selektive Wahrnehmung,2023.2.3,59.9153636521983,2023-11-06 13h32.50.032028 +0100,
schlange1,3,0,48,2,,,,,269.88054329995066,,,,,,,,,,269.8458283999935,269.88054329995066,271.8941799001768,272.860452900175,3.0152617003768682,273.9130711001344,"[300, 0]",[0.1935185185185185],[-0.07407407407407407],[1],[0],[0],[1.0518517000600696],[1],['target_find'],273.9142291001044,274.9282451001927,,,,,,,,,,,,,,,,,,,,,,,,,,,,,,,903908,001,2023-11-06_13h32.07.227,Selektive Wahrnehmung,2023.2.3,59.9153636521983,2023-11-06 13h32.50.032028 +0100,
gruppe1,3,1,49,6,,,,,274.96048700017855,,,,,,,,,,274.92887909989804,274.96048700017855,276.96042260015383,277.9604038000107,3.032402199693024,278.8280454999767,"[300, 300]",[0.2611111111111111],[0.1935185185185185],[1],[0],[0],[0.8669549999758601],[1],['target_find'],278.82857510028407,279.84513380005956,,,,,,,,,,,,,,,,,,,,,,,,,,,,,,,903908,001,2023-11-06_13h32.07.227,Selektive Wahrnehmung,2023.2.3,59.9153636521983,2023-11-06 13h32.50.032028 +0100,
spinne1,3,2,50,0,,,,,279.8798524001613,,,,,,,,,,279.84538239985704,279.8798524001613,281.8937802002765,282.8602008000016,3.015163999982178,283.46293810009956,"[300, 0]",[0.23703703703703705],[0.007407407407407408],[1],[0],[0],[0.6019473001360893],[1],['target_find'],283.46412080014125,284.4777636998333,,,,,,,,,,,,,,,,,,,,,,,,,,,,,,,903908,001,2023-11-06_13h32.07.227,Selektive Wahrnehmung,2023.2.3,59.9153636521983,2023-11-06 13h32.50.032028 +0100,
zug1,3,3,51,15,,,,,284.5269392002374,,,,,,,,,,284.47837190004066,284.5269392002374,286.52678109984845,287.5101168002002,2.99900810001418,287.94713880028576,"[300, 0]",[0.20092592592592592],[0.0],[1],[0],[0],[0.46923929965123534],[1],['target_find'],287.94859889987856,288.9610385000706,,,,,,,,,,,,,,,,,,,,,,,,,,,,,,,903908,001,2023-11-06_13h32.07.227,Selektive Wahrnehmung,2023.2.3,59.9153636521983,2023-11-06 13h32.50.032028 +0100,
flugzeug1,3,4,52,13,,,,,289.01289970008656,,,,,,,,,,288.9616404999979,289.01289970008656,291.02771360008046,291.99313980014995,3.0321778003126383,293.16209480026737,"[0, 300]",[-0.06759259259259259],[0.1685185185185185],[1],[0],[0],[1.1681224997155368],[1],['target_find'],293.1631852001883,294.1773161999881,,,,,,,,,,,,,,,,,,,,,,,,,,,,,,,903908,001,2023-11-06_13h32.07.227,Selektive Wahrnehmung,2023.2.3,59.9153636521983,2023-11-06 13h32.50.032028 +0100,
gesicht3,3,5,53,10,,,,,294.22614540020004,,,,,,,,,,294.17790610017255,294.22614540020004,296.22619730001315,297.20927610015497,2.999087799806148,297.88053670013323,"[-300, 0]",[-0.22314814814814815],[0.014814814814814815],[1],[0],[0],[0.7026244001463056],[1],['target_find'],297.8822913998738,298.8939954000525,,,,,,,,,,,,,,,,,,,,,,,,,,,,,,,903908,001,2023-11-06_13h32.07.227,Selektive Wahrnehmung,2023.2.3,59.9153636521983,2023-11-06 13h32.50.032028 +0100,
gesicht1,3,6,54,8,,,,,298.9457990000956,,,,,,,,,,298.89465729985386,298.9457990000956,300.9608470001258,301.9100544000976,3.016139399725944,302.68028610013425,"[300, 300]",[0.19907407407407407],[0.19074074074074074],[1],[0],[0],[0.7694282997399569],[1],['target_find'],302.6813409002498,303.69387899991125,,,,,,,,,,,,,,,,,,,,,,,,,,,,,,,903908,001,2023-11-06_13h32.07.227,Selektive Wahrnehmung,2023.2.3,59.9153636521983,2023-11-06 13h32.50.032028 +0100,
gesicht2,3,7,55,9,,,,,303.7292567999102,,,,,,,,,,303.69410260021687,303.7292567999102,305.74370789993554,306.7269927999005,3.033211600035429,307.41215280024335,"[-300, 0]",[-0.2361111111111111],[0.023148148148148147],[1],[0],[0],[0.6842870996333659],[1],['target_find'],307.41323029994965,308.4281874001026,,,,,,,,,,,,,,,,,,,,,,,,,,,,,,,903908,001,2023-11-06_13h32.07.227,Selektive Wahrnehmung,2023.2.3,59.9153636521983,2023-11-06 13h32.50.032028 +0100,
auto1,3,8,56,12,,,,,308.4788008001633,,,,,,,,,,308.42894800007343,308.4788008001633,310.49287000019103,311.47577820019796,3.047666999977082,312.39526590006426,"[-300, 0]",[-0.18703703703703703],[0.017592592592592594],[1],[0],[0],[0.9186722999438643],[1],['target_find'],312.3964281999506,313.4097310998477,,,,,,,,,,,,,,,,,,,,,,,,,,,,,,,903908,001,2023-11-06_13h32.07.227,Selektive Wahrnehmung,2023.2.3,59.9153636521983,2023-11-06 13h32.50.032028 +0100,
schlange2,3,9,57,3,,,,,313.442333499901,,,,,,,,,,313.41028500022367,313.442333499901,315.4422837002203,316.4254437000491,3.0157905002124608,317.2932417001575,"[300, 300]",[0.27685185185185185],[0.21203703703703702],[1],[0],[0],[0.8672838998027146],[1],['target_find'],317.293778100051,318.31032139994204,,,,,,,,,,,,,,,,,,,,,,,,,,,,,,,903908,001,2023-11-06_13h32.07.227,Selektive Wahrnehmung,2023.2.3,59.9153636521983,2023-11-06 13h32.50.032028 +0100,
gesicht4,3,10,58,11,,,,,318.3452922999859,,,,,,,,,,318.31095660012215,318.3452922999859,320.35962809994817,321.3249850999564,3.0147198997437954,322.5113467001356,"[0, -300]",[-0.011111111111111112],[-0.37037037037037035],[1],[0],[0],[1.18558119982481],[1],['target_find'],322.51249120011926,323.5260356999934,,,,,,,,,,,,,,,,,,,,,,,,,,,,,,,903908,001,2023-11-06_13h32.07.227,Selektive Wahrnehmung,2023.2.3,59.9153636521983,2023-11-06 13h32.50.032028 +0100,
gruppe2,3,11,59,7,,,,,323.5751801999286,,,,,,,,,,323.52663400024176,323.5751801999286,325.5750347999856,326.55830520018935,2.9990389002487063,327.7265066001564,"[-300, 300]",[-0.2675925925925926],[0.30277777777777776],[1],[0],[0],[1.2005201000720263],[1],['target_find'],327.7270304998383,328.74270820012316,,,,,,,,,,,,,,,,,,,,,,,,,,,,,,,903908,001,2023-11-06_13h32.07.227,Selektive Wahrnehmung,2023.2.3,59.9153636521983,2023-11-06 13h32.50.032028 +0100,
schiff1,3,12,60,14,,,,,328.79454130027443,,,,,,,,,,328.7432965002954,328.79454130027443,330.8095104000531,331.75808490021154,3.0154538000933826,333.0951386000961,"[0, -300]",[0.030555555555555555],[-0.2638888888888889],[1],[0],[0],[1.3359237001277506],[1],['target_find'],333.0969565999694,334.10920630022883,,,,,,,,,,,,,,,,,,,,,,,,,,,,,,,903908,001,2023-11-06_13h32.07.227,Selektive Wahrnehmung,2023.2.3,59.9153636521983,2023-11-06 13h32.50.032028 +0100,
person2,3,13,61,5,,,,,334.1580278002657,,,,,,,,,,334.1099530002102,334.1580278002657,336.15792379993945,337.1411681002937,3.032033700030297,337.89362609991804,"[-300, 0]",[-0.1787037037037037],[-0.08333333333333333],[1],[0],[0],[0.7517369999550283],[1],['target_find'],337.8945360002108,338.90919699985534,,,,,,,,,,,,,,,,,,,,,,,,,,,,,,,903908,001,2023-11-06_13h32.07.227,Selektive Wahrnehmung,2023.2.3,59.9153636521983,2023-11-06 13h32.50.032028 +0100,
spinne2,3,14,62,1,,,,,339.1078730998561,,,,,,,,,,338.9098276998848,339.1078730998561,341.10768119990826,341.957793999929,3.0488239000551403,342.64419510029256,"[300, 0]",[0.17314814814814813],[-0.08888888888888889],[1],[0],[0],[0.6857169000431895],[1],['target_find'],342.6447065002285,343.6586100002751,,,,,,,,,,,,,,,,,,,,,,,,,,,,,,,903908,001,2023-11-06_13h32.07.227,Selektive Wahrnehmung,2023.2.3,59.9153636521983,2023-11-06 13h32.50.032028 +0100,
person1,3,15,63,4,,,,,343.70721350004897,,,,,,,,,,343.6592402001843,343.70721350004897,345.7071754001081,346.72421259991825,3.0657925996929407,347.4772528000176,"[300, 300]",[0.21851851851851853],[0.1638888888888889],[1],[0],[0],[0.7519875997677445],[1],['target_find'],347.47846679994836,348.4933055001311,,,,,,,,,,,,,,,,,,,,,,,,,,,,,,,903908,001,2023-11-06_13h32.07.227,Selektive Wahrnehmung,2023.2.3,59.9153636521983,2023-11-06 13h32.50.032028 +0100,
person2,4,0,64,5,,,,,348.54377850005403,,,,,,,,,,348.4940567999147,348.54377850005403,350.55824219994247,351.5239504002966,3.0307165002450347,352.30962290009484,"[-300, -300]",[-0.21388888888888888],[-0.20925925925925926],[1],[0],[0],[0.7851746003143489],[1],['target_find'],352.31015009991825,353.3248958000913,,,,,,,,,,,,,,,,,,,,,,,,,,,,,,,903908,001,2023-11-06_13h32.07.227,Selektive Wahrnehmung,2023.2.3,59.9153636521983,2023-11-06 13h32.50.032028 +0100,
gesicht2,4,1,65,9,,,,,353.3571736002341,,,,,,,,,,353.32553699985147,353.3571736002341,355.35719460016116,356.3570914999582,3.0323826000094414,356.9429057999514,"[-300, 0]",[-0.20092592592592592],[-0.025],[1],[0],[0],[0.5849040998145938],[1],['target_find'],356.9439844000153,357.9586721002124,,,,,,,,,,,,,,,,,,,,,,,,,,,,,,,903908,001,2023-11-06_13h32.07.227,Selektive Wahrnehmung,2023.2.3,59.9153636521983,2023-11-06 13h32.50.032028 +0100,
schlange2,4,2,66,3,,,,,358.0099603999406,,,,,,,,,,357.95942540001124,358.0099603999406,360.02448099991307,360.9733993001282,3.0148062999360263,362.5248151002452,"[300, 300]",[0.2537037037037037],[0.23333333333333334],[1],[0],[0],[1.5509188999421895],[1],['target_find'],362.5253369002603,363.54085200000554,,,,,,,,,,,,,,,,,,,,,,,,,,,,,,,903908,001,2023-11-06_13h32.07.227,Selektive Wahrnehmung,2023.2.3,59.9153636521983,2023-11-06 13h32.50.032028 +0100,
zug1,4,3,67,15,,,,,363.5900166002102,,,,,,,,,,363.5414630002342,363.5900166002102,365.58997850026935,366.556393600069,3.0156027004122734,367.3592970999889,"[0, -300]",[0.08333333333333333],[-0.20462962962962963],[1],[0],[0],[0.8021935001015663],[1],['target_find'],367.3602721998468,368.37453370029107,,,,,,,,,,,,,,,,,,,,,,,,,,,,,,,903908,001,2023-11-06_13h32.07.227,Selektive Wahrnehmung,2023.2.3,59.9153636521983,2023-11-06 13h32.50.032028 +0100,
gesicht1,4,4,68,8,,,,,368.42318090004846,,,,,,,,,,368.3752715000883,368.42318090004846,370.42321350006387,371.4064694000408,3.0320146000012755,372.1422724998556,"[-300, 0]",[-0.20185185185185187],[-0.03333333333333333],[1],[0],[0],[0.7350393999367952],[1],['target_find'],372.1432628002949,373.15824839985,,,,,,,,,,,,,,,,,,,,,,,,,,,,,,,903908,001,2023-11-06_13h32.07.227,Selektive Wahrnehmung,2023.2.3,59.9153636521983,2023-11-06 13h32.50.032028 +0100,
gruppe1,4,5,69,6,,,,,373.2093620998785,,,,,,,,,,373.15884539997205,373.2093620998785,375.22377149993554,376.17292280029505,3.0147589999251068,377.0920425001532,"[0, -300]",[0.006481481481481481],[-0.2490740740740741],[1],[0],[0],[0.9183602002449334],[1],['target_find'],377.09313020017,378.106961700134,,,,,,,,,,,,,,,,,,,,,,,,,,,,,,,903908,001,2023-11-06_13h32.07.227,Selektive Wahrnehmung,2023.2.3,59.9153636521983,2023-11-06 13h32.50.032028 +0100,
schiff1,4,6,70,14,,,,,378.15611690003425,,,,,,,,,,378.1074530002661,378.15611690003425,380.15603670012206,381.1390956998803,3.032268200069666,382.05966879986227,"[0, -300]",[-0.014814814814814815],[-0.24351851851851852],[1],[0],[0],[0.9193521002307534],[1],['target_find'],382.0614864998497,383.07375370012596,,,,,,,,,,,,,,,,,,,,,,,,,,,,,,,903908,001,2023-11-06_13h32.07.227,Selektive Wahrnehmung,2023.2.3,59.9153636521983,2023-11-06 13h32.50.032028 +0100,
flugzeug1,4,7,71,13,,,,,383.1423265002668,,,,,,,,,,383.07451800024137,383.1423265002668,385.15715630026534,386.08898880006745,3.0153131997212768,388.0924237999134,"[300, 300]",[0.17962962962962964],[0.1935185185185185],[1],[0],[0],[2.0025959997437894],[1],['target_find'],388.0934954001568,389.10661729983985,,,,,,,,,,,,,,,,,,,,,,,,,,,,,,,903908,001,2023-11-06_13h32.07.227,Selektive Wahrnehmung,2023.2.3,59.9153636521983,2023-11-06 13h32.50.032028 +0100,
gruppe2,4,8,72,7,,,,,389.1388790998608,,,,,,,,,,389.10721699986607,389.1388790998608,391.13880270021036,392.138943400234,2.9990858999080956,393.0580476000905,"[-300, 300]",[-0.20555555555555555],[0.26666666666666666],[1],[0],[0],[0.9513536999002099],[1],['target_find'],393.0586665002629,394.0728839999065,,,,,,,,,,,,,,,,,,,,,,,,,,,,,,,903908,001,2023-11-06_13h32.07.227,Selektive Wahrnehmung,2023.2.3,59.9153636521983,2023-11-06 13h32.50.032028 +0100,
person1,4,9,73,4,,,,,394.1051227999851,,,,,,,,,,394.07338920002803,394.1051227999851,396.1052732998505,397.0885622999631,3.0157614001072943,397.8919216999784,"[-300, 0]",[-0.23703703703703705],[0.012037037037037037],[1],[0],[0],[0.8024242999963462],[1],['target_find'],397.89320340007544,398.90610400028527,,,,,,,,,,,,,,,,,,,,,,,,,,,,,,,903908,001,2023-11-06_13h32.07.227,Selektive Wahrnehmung,2023.2.3,59.9153636521983,2023-11-06 13h32.50.032028 +0100,
spinne1,4,10,74,0,,,,,398.9383851001039,,,,,,,,,,398.9066869998351,398.9383851001039,400.939766400028,401.92184640001506,3.0159603003412485,402.92466840008274,"[-300, -300]",[-0.22314814814814815],[-0.2],[1],[0],[0],[1.0018079997971654],[1],['target_find'],402.92578400019556,403.9394431998953,,,,,,,,,,,,,,,,,,,,,,,,,,,,,,,903908,001,2023-11-06_13h32.07.227,Selektive Wahrnehmung,2023.2.3,59.9153636521983,2023-11-06 13h32.50.032028 +0100,
schlange1,4,11,75,2,,,,,403.9911775002256,,,,,,,,,,403.9401929001324,403.9911775002256,406.0062289000489,406.97144690016285,3.0320771001279354,407.8228584001772,"[300, 300]",[0.2972222222222222],[0.21481481481481482],[1],[0],[0],[0.8508446998894215],[1],['target_find'],407.82338530011475,408.8391284001991,,,,,,,,,,,,,,,,,,,,,,,,,,,,,,,903908,001,2023-11-06_13h32.07.227,Selektive Wahrnehmung,2023.2.3,59.9153636521983,2023-11-06 13h32.50.032028 +0100,
gesicht3,4,12,76,10,,,,,408.8880676999688,,,,,,,,,,408.8397520002909,408.8880676999688,410.887992199976,411.871350500267,3.0324268001131713,412.6237341002561,"[-300, -300]",[-0.20833333333333334],[-0.16018518518518518],[1],[0],[0],[0.7513465001247823],[1],['target_find'],412.6249776002951,413.6403700001538,,,,,,,,,,,,,,,,,,,,,,,,,,,,,,,903908,001,2023-11-06_13h32.07.227,Selektive Wahrnehmung,2023.2.3,59.9153636521983,2023-11-06 13h32.50.032028 +0100,
gesicht4,4,13,77,11,,,,,413.69067130004987,,,,,,,,,,413.6411796002649,413.69067130004987,415.7052290001884,416.67110589984804,3.030824299901724,417.2240015002899,"[300, 0]",[0.2611111111111111],[-0.06018518518518518],[1],[0],[0],[0.5519998003728688],[1],['target_find'],417.22509340010583,418.239014999941,,,,,,,,,,,,,,,,,,,,,,,,,,,,,,,903908,001,2023-11-06_13h32.07.227,Selektive Wahrnehmung,2023.2.3,59.9153636521983,2023-11-06 13h32.50.032028 +0100,
spinne2,4,14,78,1,,,,,418.45547930011526,,,,,,,,,,418.23967459984124,418.45547930011526,420.47230610018596,421.2708462001756,3.031918399967253,421.85649840021506,"[300, 0]",[0.20092592592592592],[-0.04351851851851852],[1],[0],[0],[0.5848698997870088],[1],['target_find'],421.8575912001543,422.87180990027264,,,,,,,,,,,,,,,,,,,,,,,,,,,,,,,903908,001,2023-11-06_13h32.07.227,Selektive Wahrnehmung,2023.2.3,59.9153636521983,2023-11-06 13h32.50.032028 +0100,
auto1,4,15,79,12,,,,,422.93737880000845,,,,,,,,,,422.8724368000403,422.93737880000845,424.93733650026843,425.9374092002399,2.9990298999473453,426.5398325002752,"[-300, 300]",[-0.3055555555555556],[0.25277777777777777],[1],[0],[0],[0.6680133999325335],[1],['target_find'],426.5403653001413,427.55536030000076,,,,,,,,,,,,,,,,,,,,,,,,,,,,,,,903908,001,2023-11-06_13h32.07.227,Selektive Wahrnehmung,2023.2.3,59.9153636521983,2023-11-06 13h32.50.032028 +0100,
,,,,,0,0,0,0,433.95667689992115,,,,,,,,,,,,,,,,,,,,,,,,,,,427.5842333002947,431.65765900025144,431.65767760016024,433.8736180998385,433.87495520012453,447.427466600202,3.0,1.0,schiff1,,,,,,,,,,,,,,,,,,,,,,903908,001,2023-11-06_13h32.07.227,Selektive Wahrnehmung,2023.2.3,59.9153636521983,2023-11-06 13h32.50.032028 +0100,
,,,,,1,0,1,0,447.4724741000682,,,,,,,,,,,,,,,,,,,,,,,,,,,,,,,447.42783149983734,453.8778093000874,2.0,2.0,schlange1,,,,,,,,,,,,,,,,,,,,,,903908,001,2023-11-06_13h32.07.227,Selektive Wahrnehmung,2023.2.3,59.9153636521983,2023-11-06 13h32.50.032028 +0100,
,,,,,2,0,2,0,453.92246100027114,,,,,,,,,,,,,,,,,,,,,,,,,,,,,,,453.8781242999248,458.8277771999128,2.0,4.0,gesicht4,,,,,,,,,,,,,,,,,,,,,,903908,001,2023-11-06_13h32.07.227,Selektive Wahrnehmung,2023.2.3,59.9153636521983,2023-11-06 13h32.50.032028 +0100,
,,,,,3,0,3,0,458.8888856000267,,,,,,,,,,,,,,,,,,,,,,,,,,,,,,,458.8280982999131,463.4268542001955,2.0,3.0,flugzeug1,,,,,,,,,,,,,,,,,,,,,,903908,001,2023-11-06_13h32.07.227,Selektive Wahrnehmung,2023.2.3,59.9153636521983,2023-11-06 13h32.50.032028 +0100,
,,,,,4,0,4,0,463.4716532002203,,,,,,,,,,,,,,,,,,,,,,,,,,,,,,,463.42716920003295,467.5100094000809,1.0,1.0,spinne1,,,,,,,,,,,,,,,,,,,,,,903908,001,2023-11-06_13h32.07.227,Selektive Wahrnehmung,2023.2.3,59.9153636521983,2023-11-06 13h32.50.032028 +0100,
,,,,,,,,,,,,,,,,,,,,,,,,,,,,,,,,,,,,,,,,,,,,,467.51390539994463,479.5731700998731, 18,1.0,479.57319620018825,488.80998740019277,3.0,1.0,488.810008100234,491.520484900102,491.52051640022546,503.28634859994054,4.0,3.0,4.0,2.0,503.2863777000457,510.9753737002611,3.0,3.0,510.975395699963,,,,,,,,
