Target,trials.thisRepN,trials.thisTrialN,trials.thisN,trials.thisIndex,trials_2.thisRepN,trials_2.thisTrialN,trials_2.thisN,trials_2.thisIndex,thisRow.t,notes,Data_transparency.started,key_resp_data_transp.started,Data_transparency.stopped,key_resp_data_transp.keys,key_resp_data_transp.rt,key_resp_data_transp.duration,instructions.started,instructions.stopped,trial.started,target_show.started,target_show.stopped,target_find.started,mouse.started,trial.stopped,target_position_x_y,mouse.x,mouse.y,mouse.leftButton,mouse.midButton,mouse.rightButton,mouse.time,mouse.corr,mouse.clicked_name,feedback.started,feedback.stopped,instructions_survey.started,instructions_survey.stopped,instructions_ratings.started,instructions_ratings.stopped,survey_ratings.started,survey_ratings.stopped,furcht.response,liebenswert.response,rated_image,survey_gen.started,survey_gen.stopped,age.text,gender.response,survey_games.started,survey_games.stopped,pc_frequency.response,reaction_games_frequency.response,instructions_neuro.started,instructions_neuro.stopped,survey_neuro.started,survey_neuro.stopped,neuro_1_rev.response,neuro_2.response,neuro_3.response,neuro_4_rev.response,survey_fear.started,survey_fear.stopped,specific_fear_spider.response,specific_fear_snake.response,thanks.started,thanks.stopped,participant,session,date,expName,psychopyVersion,frameRate,expStart,
,,,,,,,,,,,0.019827999999506574,0.05247589999999036,42.233874799999285,z,42.175714799999696,None,,,,,,,,,,,,,,,,,,,,,,,,,,,,,,,,,,,,,,,,,,,,,,,,,,,983987,001,2023-11-13_12h57.40.245,Selektive Wahrnehmung,2023.2.3,60.009961653623,2023-11-13 13h02.00.388607 +0100,
,,,,,,,,,,,,,,,,,42.23393979999946,87.76521579999917,,,,,,,,,,,,,,,,,,,,,,,,,,,,,,,,,,,,,,,,,,,,,,,,,983987,001,2023-11-13_12h57.40.245,Selektive Wahrnehmung,2023.2.3,60.009961653623,2023-11-13 13h02.00.388607 +0100,
auto1,0,0,0,12,,,,,87.83211669999946,,,,,,,,,,87.7837184,87.83211669999946,89.84573809999983,90.79700119999961,3.0318578999995225,91.66612179999993,"[0, 300]",[0.04722222222222222],[0.1935185185185185],[1],[0],[0],[0.8681976000007126],[1],['target_find'],91.66891339999984,92.67980959999932,,,,,,,,,,,,,,,,,,,,,,,,,,,,,,,,983987,001,2023-11-13_12h57.40.245,Selektive Wahrnehmung,2023.2.3,60.009961653623,2023-11-13 13h02.00.388607 +0100,
schlange2,0,1,1,3,,,,,92.71195679999983,,,,,,,,,,92.68043869999929,92.71195679999983,94.71215419999953,95.72885379999934,2.9991428000002998,97.09893209999973,"[-300, 300]",[-0.3537037037037037],[0.2796296296296296],[1],[0],[0],[1.4185747999999876],[1],['target_find'],97.10045249999985,98.11477089999971,,,,,,,,,,,,,,,,,,,,,,,,,,,,,,,,983987,001,2023-11-13_12h57.40.245,Selektive Wahrnehmung,2023.2.3,60.009961653623,2023-11-13 13h02.00.388607 +0100,
schiff1,0,2,2,14,,,,,98.23147599999993,,,,,,,,,,98.11591439999938,98.23147599999993,100.24598389999937,101.17842979999932,3.0637136999994254,101.92969559999983,"[300, 0]",[0.2740740740740741],[-0.06944444444444445],[1],[0],[0],[0.750782000000072],[1],['target_find'],101.93024199999945,102.94593389999955,,,,,,,,,,,,,,,,,,,,,,,,,,,,,,,,983987,001,2023-11-13_12h57.40.245,Selektive Wahrnehmung,2023.2.3,60.009961653623,2023-11-13 13h02.00.388607 +0100,
gesicht4,0,3,3,11,,,,,102.99528729999929,,,,,,,,,,102.94653489999928,102.99528729999929,104.99514209999961,105.99491579999994,3.0490655000003244,106.66400749999957,"[-300, 300]",[-0.30925925925925923],[0.2212962962962963],[1],[0],[0],[0.6682405000001381],[1],['target_find'],106.66508189999968,107.67933269999958,,,,,,,,,,,,,,,,,,,,,,,,,,,,,,,,983987,001,2023-11-13_12h57.40.245,Selektive Wahrnehmung,2023.2.3,60.009961653623,2023-11-13 13h02.00.388607 +0100,
schlange1,0,4,4,2,,,,,107.81277769999997,,,,,,,,,,107.67993289999959,107.81277769999997,109.82957609999994,110.71146789999966,3.0322111999994377,111.36432319999949,"[300, 300]",[0.2712962962962963],[0.14537037037037037],[1],[0],[0],[0.6519985000004453],[1],['target_find'],111.36538199999995,112.37889129999985,,,,,,,,,,,,,,,,,,,,,,,,,,,,,,,,983987,001,2023-11-13_12h57.40.245,Selektive Wahrnehmung,2023.2.3,60.009961653623,2023-11-13 13h02.00.388607 +0100,
flugzeug1,0,5,5,13,,,,,112.42812359999971,,,,,,,,,,112.37944979999975,112.42812359999971,114.42803899999944,115.42794859999958,3.0493037000005643,117.19746149999992,"[0, -300]",[0.032407407407407406],[-0.16666666666666666],[1],[0],[0],[1.7686465000006137],[1],['target_find'],117.19816449999962,118.21185949999926,,,,,,,,,,,,,,,,,,,,,,,,,,,,,,,,983987,001,2023-11-13_12h57.40.245,Selektive Wahrnehmung,2023.2.3,60.009961653623,2023-11-13 13h02.00.388607 +0100,
person2,0,6,6,5,,,,,118.26109469999938,,,,,,,,,,118.21241399999963,118.26109469999938,120.26102159999937,121.22736919999988,3.015573900000163,122.0817548999994,"[-300, -300]",[-0.24814814814814815],[-0.1712962962962963],[1],[0],[0],[0.8535068000001047],[1],['target_find'],122.08317559999978,123.09557210000003,,,,,,,,,,,,,,,,,,,,,,,,,,,,,,,,983987,001,2023-11-13_12h57.40.245,Selektive Wahrnehmung,2023.2.3,60.009961653623,2023-11-13 13h02.00.388607 +0100,
gesicht3,0,7,7,10,,,,,123.21077069999956,,,,,,,,,,123.09633369999938,123.21077069999956,125.21212389999982,126.12767889999941,3.032384600000114,126.91431249999914,"[-300, -300]",[-0.22685185185185186],[-0.26296296296296295],[1],[0],[0],[0.7854064000002836],[1],['target_find'],126.91578339999978,127.9282491999993,,,,,,,,,,,,,,,,,,,,,,,,,,,,,,,,983987,001,2023-11-13_12h57.40.245,Selektive Wahrnehmung,2023.2.3,60.009961653623,2023-11-13 13h02.00.388607 +0100,
gruppe2,0,8,8,7,,,,,128.04396219999944,,,,,,,,,,127.9288145999999,128.04396219999944,130.0441148,130.96056829999998,3.0323982999998407,132.64666409999973,"[300, 300]",[0.3296296296296296],[0.3111111111111111],[1],[0],[0],[1.685272000000623],[1],['target_find'],132.64780269999937,133.66143679999914,,,,,,,,,,,,,,,,,,,,,,,,,,,,,,,,983987,001,2023-11-13_12h57.40.245,Selektive Wahrnehmung,2023.2.3,60.009961653623,2023-11-13 13h02.00.388607 +0100,
person1,0,9,9,4,,,,,133.71037579999938,,,,,,,,,,133.66203419999965,133.71037579999938,135.71046690000003,136.72702949999984,3.065671399999701,137.5131868999997,"[-300, 0]",[-0.22592592592592592],[0.028703703703703703],[1],[0],[0],[0.7853133999997226],[1],['target_find'],137.5143539999999,138.52905250000003,,,,,,,,,,,,,,,,,,,,,,,,,,,,,,,,983987,001,2023-11-13_12h57.40.245,Selektive Wahrnehmung,2023.2.3,60.009961653623,2023-11-13 13h02.00.388607 +0100,
gruppe1,0,10,10,6,,,,,138.5798679999998,,,,,,,,,,138.52965029999996,138.5798679999998,140.59465949999958,141.56010539999988,3.0311369999999442,142.41134929999953,"[0, -300]",[-0.075],[-0.24166666666666667],[1],[0],[0],[0.85070689999975],[1],['target_find'],142.41188839999995,143.42762959999982,,,,,,,,,,,,,,,,,,,,,,,,,,,,,,,,983987,001,2023-11-13_12h57.40.245,Selektive Wahrnehmung,2023.2.3,60.009961653623,2023-11-13 13h02.00.388607 +0100,
spinne1,0,11,11,0,,,,,143.47669229999974,,,,,,,,,,143.42815379999956,143.47669229999974,145.47669769999993,146.45967259999998,2.999169300000176,148.2117561999994,"[300, 300]",[0.23796296296296296],[0.2111111111111111],[1],[0],[0],[1.7838377000007313],[1],['target_find'],148.21265539999968,149.22777679999945,,,,,,,,,,,,,,,,,,,,,,,,,,,,,,,,983987,001,2023-11-13_12h57.40.245,Selektive Wahrnehmung,2023.2.3,60.009961653623,2023-11-13 13h02.00.388607 +0100,
gesicht1,0,12,12,8,,,,,149.2630507999993,,,,,,,,,,149.22801199999958,149.2630507999993,151.27762949999942,152.24302679999983,3.01532060000045,153.06337879999955,"[-300, 300]",[-0.2638888888888889],[0.30833333333333335],[1],[0],[0],[0.8194985000000088],[1],['target_find'],153.06461559999934,154.07729909999944,,,,,,,,,,,,,,,,,,,,,,,,,,,,,,,,983987,001,2023-11-13_12h57.40.245,Selektive Wahrnehmung,2023.2.3,60.009961653623,2023-11-13 13h02.00.388607 +0100,
zug1,0,13,13,15,,,,,154.19281449999926,,,,,,,,,,154.0780550999998,154.19281449999926,156.19289409999965,157.12626589999945,3.0490387999998347,158.23077489999923,"[-300, 0]",[-0.1685185185185185],[-0.08333333333333333],[1],[0],[0],[1.1032476999998835],[1],['target_find'],158.23314499999924,159.24269449999974,,,,,,,,,,,,,,,,,,,,,,,,,,,,,,,,983987,001,2023-11-13_12h57.40.245,Selektive Wahrnehmung,2023.2.3,60.009961653623,2023-11-13 13h02.00.388607 +0100,
gesicht2,0,14,14,9,,,,,159.27600509999957,,,,,,,,,,159.2429164999994,159.27600509999957,161.27582259999963,162.27597109999988,3.033377300000211,162.89584739999918,"[-300, 0]",[-0.15925925925925927],[-0.08055555555555556],[1],[0],[0],[0.6188382000000274],[1],['target_find'],162.89730539999982,163.91042149999976,,,,,,,,,,,,,,,,,,,,,,,,,,,,,,,,983987,001,2023-11-13_12h57.40.245,Selektive Wahrnehmung,2023.2.3,60.009961653623,2023-11-13 13h02.00.388607 +0100,
spinne2,0,15,15,1,,,,,164.1256500999998,,,,,,,,,,163.9112127999997,164.1256500999998,166.12676439999996,166.94243459999961,3.032067399999505,168.31114639999942,"[300, 300]",[0.30833333333333335],[0.21851851851851853],[1],[0],[0],[1.3679548999998588],[1],['target_find'],168.31209929999932,169.32642549999946,,,,,,,,,,,,,,,,,,,,,,,,,,,,,,,,983987,001,2023-11-13_12h57.40.245,Selektive Wahrnehmung,2023.2.3,60.009961653623,2023-11-13 13h02.00.388607 +0100,
auto1,1,0,16,12,,,,,169.3754386999999,,,,,,,,,,169.32692679999946,169.3754386999999,171.37561229999937,172.35883789999934,3.0324921999999788,173.47805679999965,"[0, -300]",[-0.20277777777777778],[-0.3074074074074074],[1],[0],[0],[1.1185255000000325],[0],['dis8'],173.47906439999952,174.49318239999957,,,,,,,,,,,,,,,,,,,,,,,,,,,,,,,,983987,001,2023-11-13_12h57.40.245,Selektive Wahrnehmung,2023.2.3,60.009961653623,2023-11-13 13h02.00.388607 +0100,
gruppe1,1,1,17,6,,,,,174.52871009999944,,,,,,,,,,174.49377269999968,174.52871009999944,176.54218449999917,177.5086537999996,3.015582400000312,178.27824879999935,"[-300, 0]",[-0.17962962962962964],[-0.08703703703703704],[1],[0],[0],[0.7686412000002747],[1],['target_find'],178.27966279999964,179.29237919999923,,,,,,,,,,,,,,,,,,,,,,,,,,,,,,,,983987,001,2023-11-13_12h57.40.245,Selektive Wahrnehmung,2023.2.3,60.009961653623,2023-11-13 13h02.00.388607 +0100,
gesicht3,1,2,18,10,,,,,179.32538449999993,,,,,,,,,,179.2926482999992,179.32538449999993,181.32513449999988,182.32519709999997,3.0329114000005575,182.79487939999945,"[-300, 0]",[-0.16666666666666666],[-0.08055555555555556],[1],[0],[0],[0.4688726999993378],[1],['target_find'],182.79604429999927,183.80981350000002,,,,,,,,,,,,,,,,,,,,,,,,,,,,,,,,983987,001,2023-11-13_12h57.40.245,Selektive Wahrnehmung,2023.2.3,60.009961653623,2023-11-13 13h02.00.388607 +0100,
zug1,1,3,19,15,,,,,183.86145959999976,,,,,,,,,,183.81060119999984,183.86145959999976,185.87574919999952,186.8416398999998,3.0318930000003093,187.5937796999997,"[0, -300]",[-0.08796296296296297],[-0.20555555555555555],[1],[0],[0],[0.7514211999996405],[1],['target_find'],187.5947813999992,188.60892259999946,,,,,,,,,,,,,,,,,,,,,,,,,,,,,,,,983987,001,2023-11-13_12h57.40.245,Selektive Wahrnehmung,2023.2.3,60.009961653623,2023-11-13 13h02.00.388607 +0100,
gesicht4,1,4,20,11,,,,,188.65807379999933,,,,,,,,,,188.60943179999958,188.65807379999933,190.6581800999993,191.62467099999958,3.015826800000468,192.51022049999938,"[300, 0]",[0.2953703703703704],[-0.041666666666666664],[1],[0],[0],[0.8847798999995575],[1],['target_find'],192.51131969999915,193.52618299999995,,,,,,,,,,,,,,,,,,,,,,,,,,,,,,,,983987,001,2023-11-13_12h57.40.245,Selektive Wahrnehmung,2023.2.3,60.009961653623,2023-11-13 13h02.00.388607 +0100,
flugzeug1,1,5,21,13,,,,,193.57748699999956,,,,,,,,,,193.52693839999938,193.57748699999956,195.59199799999988,196.54118669999934,3.0150837000001047,198.02811289999954,"[300, 300]",[0.25092592592592594],[0.16666666666666666],[1],[0],[0],[1.4860964999998032],[1],['target_find'],198.02927869999985,199.04232839999986,,,,,,,,,,,,,,,,,,,,,,,,,,,,,,,,983987,001,2023-11-13_12h57.40.245,Selektive Wahrnehmung,2023.2.3,60.009961653623,2023-11-13 13h02.00.388607 +0100,
schlange2,1,6,22,3,,,,,199.09099249999963,,,,,,,,,,199.04310009999972,199.09099249999963,201.0909118999998,202.0910888999997,3.048831600000085,203.5447222999992,"[300, -300]",[0.2518518518518518],[-0.18055555555555555],[1],[0],[0],[1.4527780000007624],[1],['target_find'],203.54591129999972,204.55850719999944,,,,,,,,,,,,,,,,,,,,,,,,,,,,,,,,983987,001,2023-11-13_12h57.40.245,Selektive Wahrnehmung,2023.2.3,60.009961653623,2023-11-13 13h02.00.388607 +0100,
spinne1,1,7,23,0,,,,,204.5921658999996,,,,,,,,,,204.55901429999994,204.5921658999996,206.5910129999993,207.57424159999937,3.0158250000004045,208.64417929999945,"[-300, 300]",[-0.32407407407407407],[0.24722222222222223],[1],[0],[0],[1.0689848000001803],[1],['target_find'],208.6455774999995,209.65812489999917,,,,,,,,,,,,,,,,,,,,,,,,,,,,,,,,983987,001,2023-11-13_12h57.40.245,Selektive Wahrnehmung,2023.2.3,60.009961653623,2023-11-13 13h02.00.388607 +0100,
person2,1,8,24,5,,,,,209.69052699999975,,,,,,,,,,209.65862749999997,209.69052699999975,211.6906085999999,212.67380629999934,3.0157546999998885,213.52625889999945,"[-300, 300]",[-0.14629629629629629],[0.25277777777777777],[1],[0],[0],[0.8516268000003038],[1],['target_find'],213.52741629999946,214.54157319999922,,,,,,,,,,,,,,,,,,,,,,,,,,,,,,,,983987,001,2023-11-13_12h57.40.245,Selektive Wahrnehmung,2023.2.3,60.009961653623,2023-11-13 13h02.00.388607 +0100,
spinne2,1,9,25,1,,,,,214.76029589999962,,,,,,,,,,214.54208489999928,214.76029589999962,216.77482449999934,217.59043029999975,3.04894350000086,218.50894040000003,"[0, -300]",[0.02962962962962963],[-0.22592592592592592],[1],[0],[0],[0.9178157999995165],[1],['target_find'],218.50979359999928,219.5247703999994,,,,,,,,,,,,,,,,,,,,,,,,,,,,,,,,983987,001,2023-11-13_12h57.40.245,Selektive Wahrnehmung,2023.2.3,60.009961653623,2023-11-13 13h02.00.388607 +0100,
gesicht2,1,10,26,9,,,,,219.5900028999995,,,,,,,,,,219.5255699999998,219.5900028999995,221.5902658999994,222.59020519999922,3.0656527000001006,223.42632519999916,"[-300, 300]",[-0.21388888888888888],[0.2388888888888889],[1],[0],[0],[0.8351407999998628],[1],['target_find'],223.42746049999914,224.44214379999994,,,,,,,,,,,,,,,,,,,,,,,,,,,,,,,,983987,001,2023-11-13_12h57.40.245,Selektive Wahrnehmung,2023.2.3,60.009961653623,2023-11-13 13h02.00.388607 +0100,
schlange1,1,11,27,2,,,,,224.4746753999998,,,,,,,,,,224.44270629999937,224.4746753999998,226.49133849999998,227.4730987999992,2.999146799999835,228.258151,"[300, 0]",[0.17314814814814813],[-0.010185185185185186],[1],[0],[0],[0.8158880000000863],[1],['target_find'],228.25872809999964,229.27358829999957,,,,,,,,,,,,,,,,,,,,,,,,,,,,,,,,983987,001,2023-11-13_12h57.40.245,Selektive Wahrnehmung,2023.2.3,60.009961653623,2023-11-13 13h02.00.388607 +0100,
person1,1,12,28,4,,,,,229.3064044999992,,,,,,,,,,229.2738449999997,229.3064044999992,231.30609879999975,232.28979809999964,3.016531600000235,233.5100911999998,"[-300, -300]",[-0.1574074074074074],[-0.18611111111111112],[1],[0],[0],[1.219175200000791],[1],['target_find'],233.51126499999918,234.52508859999944,,,,,,,,,,,,,,,,,,,,,,,,,,,,,,,,983987,001,2023-11-13_12h57.40.245,Selektive Wahrnehmung,2023.2.3,60.009961653623,2023-11-13 13h02.00.388607 +0100,
schiff1,1,13,29,14,,,,,234.55760909999935,,,,,,,,,,234.5256843999996,234.55760909999935,236.5574477,237.55612949999977,3.0311022000005323,238.5092436999994,"[300, 300]",[0.262037037037037],[0.20185185185185187],[1],[0],[0],[0.9523318000001382],[1],['target_find'],238.51039989999936,239.52395679999972,,,,,,,,,,,,,,,,,,,,,,,,,,,,,,,,983987,001,2023-11-13_12h57.40.245,Selektive Wahrnehmung,2023.2.3,60.009961653623,2023-11-13 13h02.00.388607 +0100,
gesicht1,1,14,30,8,,,,,239.57270829999925,,,,,,,,,,239.52474369999982,239.57270829999925,241.57271449999917,242.57273869999972,3.049045400000068,242.8759997999996,"[-300, 300]",[-0.26851851851851855],[0.23055555555555557],[1],[0],[0],[0.3020575000000463],[1],['target_find'],242.87743169999976,243.89162529999976,,,,,,,,,,,,,,,,,,,,,,,,,,,,,,,,983987,001,2023-11-13_12h57.40.245,Selektive Wahrnehmung,2023.2.3,60.009961653623,2023-11-13 13h02.00.388607 +0100,
gruppe2,1,15,31,7,,,,,243.94247409999934,,,,,,,,,,243.89238979999936,243.94247409999934,245.95698259999972,246.93894269999964,3.0473741000005248,247.69192159999966,"[300, 300]",[0.2638888888888889],[0.2037037037037037],[1],[0],[0],[0.7520730000005642],[1],['target_find'],247.69334209999943,248.7066634999992,,,,,,,,,,,,,,,,,,,,,,,,,,,,,,,,983987,001,2023-11-13_12h57.40.245,Selektive Wahrnehmung,2023.2.3,60.009961653623,2023-11-13 13h02.00.388607 +0100,
gruppe2,2,0,32,7,,,,,248.73893569999927,,,,,,,,,,248.70726379999996,248.73893569999927,250.73902599999928,251.73908869999923,3.03264659999968,253.12771909999992,"[300, -300]",[0.32314814814814813],[-0.35462962962962963],[1],[0],[0],[1.3871680000002016],[1],['target_find'],253.12986929999988,254.1403133999993,,,,,,,,,,,,,,,,,,,,,,,,,,,,,,,,983987,001,2023-11-13_12h57.40.245,Selektive Wahrnehmung,2023.2.3,60.009961653623,2023-11-13 13h02.00.388607 +0100,
gesicht3,2,1,33,10,,,,,254.17539139999917,,,,,,,,,,254.14081009999973,254.17539139999917,256.1896033999992,257.17182149999917,3.0315749999999753,258.1419829999995,"[300, 300]",[0.29259259259259257],[0.1824074074074074],[1],[0],[0],[0.9692426999999952],[1],['target_find'],258.14340449999963,259.15601589999915,,,,,,,,,,,,,,,,,,,,,,,,,,,,,,,,983987,001,2023-11-13_12h57.40.245,Selektive Wahrnehmung,2023.2.3,60.009961653623,2023-11-13 13h02.00.388607 +0100,
zug1,2,2,34,15,,,,,259.1886427999998,,,,,,,,,,259.15650769999957,259.1886427999998,261.1885966,262.1884046999994,3.032473299999765,262.89136729999973,"[0, -300]",[0.0712962962962963],[-0.20462962962962963],[1],[0],[0],[0.7021378999997978],[1],['target_find'],262.89253009999993,263.9062578999992,,,,,,,,,,,,,,,,,,,,,,,,,,,,,,,,983987,001,2023-11-13_12h57.40.245,Selektive Wahrnehmung,2023.2.3,60.009961653623,2023-11-13 13h02.00.388607 +0100,
flugzeug1,2,3,35,13,,,,,263.94130829999995,,,,,,,,,,263.9068496,263.94130829999995,265.95618399999967,266.93833149999955,3.032148999999663,267.7062008999992,"[300, 0]",[0.22777777777777777],[0.007407407407407408],[1],[0],[0],[0.7672871000004307],[1],['target_find'],267.7067230999992,268.7224026999993,,,,,,,,,,,,,,,,,,,,,,,,,,,,,,,,983987,001,2023-11-13_12h57.40.245,Selektive Wahrnehmung,2023.2.3,60.009961653623,2023-11-13 13h02.00.388607 +0100,
gesicht2,2,4,36,9,,,,,268.7548451999992,,,,,,,,,,268.7229043999996,268.7548451999992,270.7549362,271.7544505999995,3.032103799999277,272.5242862999994,"[-300, -300]",[-0.11388888888888889],[-0.21851851851851853],[1],[0],[0],[0.7690160000001924],[0],['dis6'],272.52546019999954,273.53888109999934,,,,,,,,,,,,,,,,,,,,,,,,,,,,,,,,983987,001,2023-11-13_12h57.40.245,Selektive Wahrnehmung,2023.2.3,60.009961653623,2023-11-13 13h02.00.388607 +0100,
gesicht4,2,5,37,11,,,,,273.5912880999995,,,,,,,,,,273.5393867999992,273.5912880999995,275.60537739999927,276.57129019999957,3.0324894999994285,277.790798,"[300, -300]",[0.17685185185185184],[-0.19166666666666668],[1],[0],[0],[1.2186891999999716],[1],['target_find'],277.7919587999995,278.8052233999997,,,,,,,,,,,,,,,,,,,,,,,,,,,,,,,,983987,001,2023-11-13_12h57.40.245,Selektive Wahrnehmung,2023.2.3,60.009961653623,2023-11-13 13h02.00.388607 +0100,
gruppe1,2,6,38,6,,,,,278.83791609999935,,,,,,,,,,278.80577229999926,278.83791609999935,280.8377144999995,281.83758769999986,3.032444399999804,282.7402979999997,"[300, 0]",[0.23333333333333334],[-0.005555555555555556],[1],[0],[0],[0.9019800000005489],[1],['target_find'],282.7412766999996,283.7564816999993,,,,,,,,,,,,,,,,,,,,,,,,,,,,,,,,983987,001,2023-11-13_12h57.40.245,Selektive Wahrnehmung,2023.2.3,60.009961653623,2023-11-13 13h02.00.388607 +0100,
person1,2,7,39,4,,,,,283.80722089999927,,,,,,,,,,283.7571081999995,283.80722089999927,285.82092719999946,286.8043431999995,2.9991251999999804,287.75762099999974,"[300, -300]",[0.24074074074074073],[-0.2796296296296296],[1],[0],[0],[1.0006691999997201],[1],['target_find'],287.7593659999993,288.7714380999996,,,,,,,,,,,,,,,,,,,,,,,,,,,,,,,,983987,001,2023-11-13_12h57.40.245,Selektive Wahrnehmung,2023.2.3,60.009961653623,2023-11-13 13h02.00.388607 +0100,
spinne2,2,8,40,1,,,,,288.9540359999992,,,,,,,,,,288.77194059999965,288.9540359999992,290.9540230999992,291.80368519999956,3.0323094000004858,292.8574951999999,"[0, -300]",[-0.07314814814814814],[-0.22777777777777777],[1],[0],[0],[1.0530340999994223],[1],['target_find'],292.8585749999993,293.87142119999953,,,,,,,,,,,,,,,,,,,,,,,,,,,,,,,,983987,001,2023-11-13_12h57.40.245,Selektive Wahrnehmung,2023.2.3,60.009961653623,2023-11-13 13h02.00.388607 +0100,
spinne1,2,9,41,0,,,,,293.9386066999996,,,,,,,,,,293.8719192999997,293.9386066999996,295.93835859999945,296.937148,3.065818500000205,298.0075655999999,"[-300, 300]",[-0.23425925925925925],[0.17222222222222222],[1],[0],[0],[1.0695052000000942],[1],['target_find'],298.0087359999998,299.02189089999956,,,,,,,,,,,,,,,,,,,,,,,,,,,,,,,,983987,001,2023-11-13_12h57.40.245,Selektive Wahrnehmung,2023.2.3,60.009961653623,2023-11-13 13h02.00.388607 +0100,
gesicht1,2,10,42,8,,,,,299.0567278999997,,,,,,,,,,299.0224668999999,299.0567278999997,301.07149279999976,302.0536999999995,3.0318889000000127,303.0731644999996,"[300, 300]",[0.17037037037037037],[0.27037037037037037],[1],[0],[0],[1.0186197000002721],[1],['target_find'],303.0744044999992,304.08795629999986,,,,,,,,,,,,,,,,,,,,,,,,,,,,,,,,983987,001,2023-11-13_12h57.40.245,Selektive Wahrnehmung,2023.2.3,60.009961653623,2023-11-13 13h02.00.388607 +0100,
schlange2,2,11,43,3,,,,,304.1366779,,,,,,,,,,304.08871519999957,304.1366779,306.13680750000003,307.1197820999996,3.032089499999529,307.9062239999994,"[-300, 0]",[-0.30277777777777776],[0.06296296296296296],[1],[0],[0],[0.785369800000808],[1],['target_find'],307.9073750999996,308.9210745999999,,,,,,,,,,,,,,,,,,,,,,,,,,,,,,,,983987,001,2023-11-13_12h57.40.245,Selektive Wahrnehmung,2023.2.3,60.009961653623,2023-11-13 13h02.00.388607 +0100,
auto1,2,12,44,12,,,,,308.98786759999984,,,,,,,,,,308.92183269999987,308.98786759999984,310.9865598999995,311.9531959999995,3.032190400000218,312.9710976999995,"[0, 300]",[0.03796296296296296],[0.2222222222222222],[1],[0],[0],[1.0173131000001376],[1],['target_find'],312.97161809999943,313.9871648999997,,,,,,,,,,,,,,,,,,,,,,,,,,,,,,,,983987,001,2023-11-13_12h57.40.245,Selektive Wahrnehmung,2023.2.3,60.009961653623,2023-11-13 13h02.00.388607 +0100,
schlange1,2,13,45,2,,,,,314.01977439999973,,,,,,,,,,313.98765039999944,314.01977439999973,316.0196581,317.0029728999998,3.0159013000002233,318.07321219999994,"[300, -300]",[0.17777777777777778],[-0.20555555555555555],[1],[0],[0],[1.0693350999999893],[1],['target_find'],318.074525,319.08827069999916,,,,,,,,,,,,,,,,,,,,,,,,,,,,,,,,983987,001,2023-11-13_12h57.40.245,Selektive Wahrnehmung,2023.2.3,60.009961653623,2023-11-13 13h02.00.388607 +0100,
schiff1,2,14,46,14,,,,,319.12237749999986,,,,,,,,,,319.0887639999992,319.12237749999986,321.1360511999992,322.1028291999992,3.0146482000000105,323.43839579999985,"[300, -300]",[0.1962962962962963],[-0.21851851851851853],[1],[0],[0],[1.334737099999984],[1],['target_find'],323.43957039999987,324.4534144999998,,,,,,,,,,,,,,,,,,,,,,,,,,,,,,,,983987,001,2023-11-13_12h57.40.245,Selektive Wahrnehmung,2023.2.3,60.009961653623,2023-11-13 13h02.00.388607 +0100,
person2,2,15,47,5,,,,,324.48580239999956,,,,,,,,,,324.45391129999916,324.48580239999956,326.4857906999996,327.4691918999997,3.0158677999997963,328.14001859999917,"[0, 300]",[0.08055555555555556],[0.16018518518518518],[1],[0],[0],[0.6699946000007913],[1],['target_find'],328.1411785,329.1544780999993,,,,,,,,,,,,,,,,,,,,,,,,,,,,,,,,983987,001,2023-11-13_12h57.40.245,Selektive Wahrnehmung,2023.2.3,60.009961653623,2023-11-13 13h02.00.388607 +0100,
flugzeug1,3,0,48,13,,,,,329.18672159999915,,,,,,,,,,329.15500019999945,329.18672159999915,331.2035462999993,332.1856201999999,3.0312235000001237,333.27079869999943,"[300, 300]",[0.35462962962962963],[0.22962962962962963],[1],[0],[0],[1.0846670999999333],[1],['target_find'],333.27132019999954,334.2865226999993,,,,,,,,,,,,,,,,,,,,,,,,,,,,,,,,983987,001,2023-11-13_12h57.40.245,Selektive Wahrnehmung,2023.2.3,60.009961653623,2023-11-13 13h02.00.388607 +0100,
auto1,3,1,49,12,,,,,334.3187146999999,,,,,,,,,,334.28712219999943,334.3187146999999,336.31874509999943,337.3187362999997,3.0323267000003398,338.57140159999926,"[0, -300]",[0.020370370370370372],[-0.14444444444444443],[1],[0],[0],[1.2517933999997695],[1],['target_find'],338.57256209999923,339.5866882,,,,,,,,,,,,,,,,,,,,,,,,,,,,,,,,983987,001,2023-11-13_12h57.40.245,Selektive Wahrnehmung,2023.2.3,60.009961653623,2023-11-13 13h02.00.388607 +0100,
schiff1,3,2,50,14,,,,,339.65325269999994,,,,,,,,,,339.5874454999994,339.65325269999994,341.65319869999985,342.60190909999983,3.015303899999708,343.3372567999995,"[300, 0]",[0.19722222222222222],[0.019444444444444445],[1],[0],[0],[0.7346627000006265],[1],['target_find'],343.33806000000004,344.3522825,,,,,,,,,,,,,,,,,,,,,,,,,,,,,,,,983987,001,2023-11-13_12h57.40.245,Selektive Wahrnehmung,2023.2.3,60.009961653623,2023-11-13 13h02.00.388607 +0100,
schlange1,3,3,51,2,,,,,344.3849311999993,,,,,,,,,,344.35257179999917,344.3849311999993,346.3850402999997,347.3683123999999,3.0161212000002706,348.07083149999926,"[300, 0]",[0.2175925925925926],[0.014814814814814815],[1],[0],[0],[0.7017549000001964],[1],['target_find'],348.07187499999964,349.0871398999998,,,,,,,,,,,,,,,,,,,,,,,,,,,,,,,,983987,001,2023-11-13_12h57.40.245,Selektive Wahrnehmung,2023.2.3,60.009961653623,2023-11-13 13h02.00.388607 +0100,
schlange2,3,4,52,3,,,,,349.1195783999992,,,,,,,,,,349.08775179999975,349.1195783999992,351.1182382999996,352.1181096,3.031045499999891,353.1870532999992,"[-300, -300]",[-0.20833333333333334],[-0.21203703703703702],[1],[0],[0],[1.0682201999998142],[1],['target_find'],353.1880261999995,354.20204529999955,,,,,,,,,,,,,,,,,,,,,,,,,,,,,,,,983987,001,2023-11-13_12h57.40.245,Selektive Wahrnehmung,2023.2.3,60.009961653623,2023-11-13 13h02.00.388607 +0100,
person1,3,5,53,4,,,,,354.2346985999993,,,,,,,,,,354.20253929999944,354.2346985999993,356.2346616999994,357.2176266999995,3.0156569000000673,358.1203668999997,"[-300, 0]",[-0.1935185185185185],[0.019444444444444445],[1],[0],[0],[0.9019951000000219],[1],['target_find'],358.12138269999923,359.13637199999994,,,,,,,,,,,,,,,,,,,,,,,,,,,,,,,,983987,001,2023-11-13_12h57.40.245,Selektive Wahrnehmung,2023.2.3,60.009961653623,2023-11-13 13h02.00.388607 +0100,
gesicht3,3,6,54,10,,,,,359.17118949999985,,,,,,,,,,359.13686809999945,359.17118949999985,361.18579279999994,362.1508649999996,3.0145708000000013,362.7876613999997,"[-300, 0]",[-0.18425925925925926],[0.025925925925925925],[1],[0],[0],[0.6358654000005117],[1],['target_find'],362.7889847999995,363.80225079999946,,,,,,,,,,,,,,,,,,,,,,,,,,,,,,,,983987,001,2023-11-13_12h57.40.245,Selektive Wahrnehmung,2023.2.3,60.009961653623,2023-11-13 13h02.00.388607 +0100,
spinne1,3,7,55,0,,,,,363.85102689999985,,,,,,,,,,363.80303299999923,363.85102689999985,365.8507049,366.83383009999943,3.0316204000000653,368.78851569999915,"[0, -300]",[-0.004629629629629629],[-0.2601851851851852],[1],[0],[0],[1.9534358000000793],[1],['target_find'],368.7908007999995,369.80200909999985,,,,,,,,,,,,,,,,,,,,,,,,,,,,,,,,983987,001,2023-11-13_12h57.40.245,Selektive Wahrnehmung,2023.2.3,60.009961653623,2023-11-13 13h02.00.388607 +0100,
gesicht2,3,8,56,9,,,,,369.8537311,,,,,,,,,,369.8024354999998,369.8537311,371.8682257999999,372.81728849999945,3.0153737000000547,373.53667629999927,"[-300, 0]",[-0.22314814814814815],[0.020370370370370372],[1],[0],[0],[0.7184811999995873],[1],['target_find'],373.5379101999997,374.55297959999916,,,,,,,,,,,,,,,,,,,,,,,,,,,,,,,,983987,001,2023-11-13_12h57.40.245,Selektive Wahrnehmung,2023.2.3,60.009961653623,2023-11-13 13h02.00.388607 +0100,
gesicht1,3,9,57,8,,,,,374.6036860999993,,,,,,,,,,374.5537355999995,374.6036860999993,376.6183553999999,377.5835098999996,3.0307865000004313,378.35297829999945,"[-300, 0]",[-0.16018518518518518],[0.03796296296296296],[1],[0],[0],[0.7684075999995912],[1],['target_find'],378.3542185999995,379.3672854999995,,,,,,,,,,,,,,,,,,,,,,,,,,,,,,,,983987,001,2023-11-13_12h57.40.245,Selektive Wahrnehmung,2023.2.3,60.009961653623,2023-11-13 13h02.00.388607 +0100,
gesicht4,3,10,58,11,,,,,379.40017759999955,,,,,,,,,,379.36753989999943,379.40017759999955,381.40012690000003,382.3834180999993,3.0162351999997554,383.2343254999996,"[-300, 300]",[-0.24074074074074073],[0.2101851851851852],[1],[0],[0],[0.8503913000004104],[1],['target_find'],383.23484009999993,384.2520687999995,,,,,,,,,,,,,,,,,,,,,,,,,,,,,,,,983987,001,2023-11-13_12h57.40.245,Selektive Wahrnehmung,2023.2.3,60.009961653623,2023-11-13 13h02.00.388607 +0100,
gruppe1,3,11,59,6,,,,,384.3180829999992,,,,,,,,,,384.2529767999995,384.3180829999992,386.3347361999995,387.2833944999993,3.0313965999994252,387.98665699999947,"[300, 0]",[0.25092592592592594],[0.001851851851851852],[1],[0],[0],[0.7023423999999068],[1],['target_find'],387.9880551999995,389.0012773999997,,,,,,,,,,,,,,,,,,,,,,,,,,,,,,,,983987,001,2023-11-13_12h57.40.245,Selektive Wahrnehmung,2023.2.3,60.009961653623,2023-11-13 13h02.00.388607 +0100,
zug1,3,12,60,15,,,,,389.0499385999992,,,,,,,,,,389.0021563,389.0499385999992,391.04982349999955,392.03302409999924,3.0318065000001297,392.8024714999992,"[-300, 0]",[-0.1787037037037037],[-0.006481481481481481],[1],[0],[0],[0.7686409000007188],[1],['target_find'],392.8036268999995,393.818534,,,,,,,,,,,,,,,,,,,,,,,,,,,,,,,,983987,001,2023-11-13_12h57.40.245,Selektive Wahrnehmung,2023.2.3,60.009961653623,2023-11-13 13h02.00.388607 +0100,
person2,3,13,61,5,,,,,393.88604489999943,,,,,,,,,,393.8194393999993,393.88604489999943,395.89974559999973,396.85087589999966,3.0324143999996522,397.5852402999999,"[300, 300]",[0.15],[0.15462962962962962],[1],[0],[0],[0.7335899999998219],[1],['target_find'],397.5862350999996,398.6002602999997,,,,,,,,,,,,,,,,,,,,,,,,,,,,,,,,983987,001,2023-11-13_12h57.40.245,Selektive Wahrnehmung,2023.2.3,60.009961653623,2023-11-13 13h02.00.388607 +0100,
spinne2,3,14,62,1,,,,,398.79947749999974,,,,,,,,,,398.6010923999993,398.79947749999974,400.7993699999997,401.61607099999947,3.015889799999968,402.21747249999953,"[0, 300]",[-0.025],[0.1648148148148148],[1],[0],[0],[0.6007941999996547],[1],['target_find'],402.21800619999976,403.2326347999997,,,,,,,,,,,,,,,,,,,,,,,,,,,,,,,,983987,001,2023-11-13_12h57.40.245,Selektive Wahrnehmung,2023.2.3,60.009961653623,2023-11-13 13h02.00.388607 +0100,
gruppe2,3,15,63,7,,,,,403.28257289999965,,,,,,,,,,403.23287079999955,403.28257289999965,405.28384149999965,406.30042869999943,3.0678914000000077,407.78544899999997,"[-300, -300]",[-0.22777777777777777],[-0.15555555555555556],[1],[0],[0],[1.4842147999997906],[1],['target_find'],407.7865078999994,408.80053449999923,,,,,,,,,,,,,,,,,,,,,,,,,,,,,,,,983987,001,2023-11-13_12h57.40.245,Selektive Wahrnehmung,2023.2.3,60.009961653623,2023-11-13 13h02.00.388607 +0100,
gesicht3,4,0,64,10,,,,,408.8322183999999,,,,,,,,,,408.80140949999986,408.8322183999999,410.8323557999993,411.8488306999998,3.0483696999999665,412.53466689999914,"[300, 300]",[0.24166666666666667],[0.14537037037037037],[1],[0],[0],[0.6850905000001148],[1],['target_find'],412.53564539999934,413.5500788999998,,,,,,,,,,,,,,,,,,,,,,,,,,,,,,,,983987,001,2023-11-13_12h57.40.245,Selektive Wahrnehmung,2023.2.3,60.009961653623,2023-11-13 13h02.00.388607 +0100,
spinne2,4,1,65,1,,,,,413.7666305999992,,,,,,,,,,413.5507496,413.7666305999992,415.7820976999992,416.59884089999923,3.048837999999705,417.78472189999957,"[-300, -300]",[-0.3148148148148148],[-0.24351851851851852],[1],[0],[0],[1.1850709999998799],[1],['target_find'],417.7858099999994,418.79890389999946,,,,,,,,,,,,,,,,,,,,,,,,,,,,,,,,983987,001,2023-11-13_12h57.40.245,Selektive Wahrnehmung,2023.2.3,60.009961653623,2023-11-13 13h02.00.388607 +0100,
gesicht1,4,2,66,8,,,,,418.84846989999915,,,,,,,,,,418.79935039999964,418.84846989999915,420.8484871999999,421.86516239999946,3.0663384999998016,422.5179496999999,"[300, 0]",[0.33611111111111114],[-0.03611111111111111],[1],[0],[0],[0.6518647000002602],[1],['target_find'],422.5193640999996,423.5329493999998,,,,,,,,,,,,,,,,,,,,,,,,,,,,,,,,983987,001,2023-11-13_12h57.40.245,Selektive Wahrnehmung,2023.2.3,60.009961653623,2023-11-13 13h02.00.388607 +0100,
schlange1,4,3,67,2,,,,,423.58187409999937,,,,,,,,,,423.5336979999993,423.58187409999937,425.5817287,426.5650415,3.0323670999996466,427.1512051999998,"[-300, 0]",[-0.1712962962962963],[-0.009259259259259259],[1],[0],[0],[0.5850631999992402],[1],['target_find'],427.15235499999926,428.1656637999995,,,,,,,,,,,,,,,,,,,,,,,,,,,,,,,,983987,001,2023-11-13_12h57.40.245,Selektive Wahrnehmung,2023.2.3,60.009961653623,2023-11-13 13h02.00.388607 +0100,
gruppe1,4,4,68,6,,,,,428.19822809999914,,,,,,,,,,428.1661697999998,428.19822809999914,430.19953559999976,431.1815960999993,3.016215900000134,432.2330100999998,"[-300, 300]",[-0.18981481481481483],[0.15833333333333333],[1],[0],[0],[1.0505129000002853],[1],['target_find'],432.23362309999993,433.2479756999992,,,,,,,,,,,,,,,,,,,,,,,,,,,,,,,,983987,001,2023-11-13_12h57.40.245,Selektive Wahrnehmung,2023.2.3,60.009961653623,2023-11-13 13h02.00.388607 +0100,
spinne1,4,5,69,0,,,,,433.28128149999975,,,,,,,,,,433.2481949999992,433.28128149999975,435.28123459999915,436.26440899999943,3.0165046000001894,437.05137959999956,"[0, -300]",[-0.02962962962962963],[-0.1111111111111111],[1],[0],[0],[0.7861861999999746],[0],['dis5'],437.0525282999997,438.06595389999984,,,,,,,,,,,,,,,,,,,,,,,,,,,,,,,,983987,001,2023-11-13_12h57.40.245,Selektive Wahrnehmung,2023.2.3,60.009961653623,2023-11-13 13h02.00.388607 +0100,
gesicht4,4,6,70,11,,,,,438.13437069999964,,,,,,,,,,438.06677469999977,438.13437069999964,440.1490228999992,441.0812274,3.0155317000007926,442.16715099999965,"[300, 300]",[0.19722222222222222],[0.2101851851851852],[1],[0],[0],[1.0847349000005124],[1],['target_find'],442.1685663999997,443.1815833999999,,,,,,,,,,,,,,,,,,,,,,,,,,,,,,,,983987,001,2023-11-13_12h57.40.245,Selektive Wahrnehmung,2023.2.3,60.009961653623,2023-11-13 13h02.00.388607 +0100,
auto1,4,7,71,12,,,,,443.21426709999923,,,,,,,,,,443.1820760999999,443.21426709999923,445.2142864999996,446.19736939999984,3.0158768000001146,447.4511801999997,"[-300, -300]",[-0.2074074074074074],[-0.1712962962962963],[1],[0],[0],[1.2530566999994335],[1],['target_find'],447.45205109999915,448.46541049999996,,,,,,,,,,,,,,,,,,,,,,,,,,,,,,,,983987,001,2023-11-13_12h57.40.245,Selektive Wahrnehmung,2023.2.3,60.009961653623,2023-11-13 13h02.00.388607 +0100,
person1,4,8,72,4,,,,,448.50080629999957,,,,,,,,,,448.4661583999996,448.50080629999957,450.51537409999946,451.4806859999999,3.0153473000000304,452.51672939999935,"[300, -300]",[0.23333333333333334],[-0.22314814814814815],[1],[0],[0],[1.0351159000001644],[1],['target_find'],452.51806489999944,453.5315290999997,,,,,,,,,,,,,,,,,,,,,,,,,,,,,,,,983987,001,2023-11-13_12h57.40.245,Selektive Wahrnehmung,2023.2.3,60.009961653623,2023-11-13 13h02.00.388607 +0100,
gruppe2,4,9,73,7,,,,,453.56374699999924,,,,,,,,,,453.53212709999934,453.56374699999924,455.5638119999994,456.5638380999999,3.0323888000002626,457.5334348999995,"[-300, 300]",[-0.18518518518518517],[0.20555555555555555],[1],[0],[0],[0.9687861000002158],[1],['target_find'],457.5345755999997,458.54807269999947,,,,,,,,,,,,,,,,,,,,,,,,,,,,,,,,983987,001,2023-11-13_12h57.40.245,Selektive Wahrnehmung,2023.2.3,60.009961653623,2023-11-13 13h02.00.388607 +0100,
person2,4,10,74,5,,,,,458.5832914999992,,,,,,,,,,458.54866969999966,458.5832914999992,460.59694089999994,461.5637053999999,3.0159413999999742,462.3165927,"[-300, 300]",[-0.1675925925925926],[0.2],[1],[0],[0],[0.7518043000000034],[1],['target_find'],462.3176991999999,463.33205409999937,,,,,,,,,,,,,,,,,,,,,,,,,,,,,,,,983987,001,2023-11-13_12h57.40.245,Selektive Wahrnehmung,2023.2.3,60.009961653623,2023-11-13 13h02.00.388607 +0100,
schlange2,4,11,75,3,,,,,463.3664280999992,,,,,,,,,,463.33256339999934,463.3664280999992,465.3811375999994,466.3464402999998,3.0144602000000305,467.549489,"[300, 300]",[0.22962962962962963],[0.15833333333333333],[1],[0],[0],[1.20209849999992],[1],['target_find'],467.5509110999992,468.5642296999995,,,,,,,,,,,,,,,,,,,,,,,,,,,,,,,,983987,001,2023-11-13_12h57.40.245,Selektive Wahrnehmung,2023.2.3,60.009961653623,2023-11-13 13h02.00.388607 +0100,
flugzeug1,4,12,76,13,,,,,468.61330259999977,,,,,,,,,,468.5648548999998,468.61330259999977,470.6131526999998,471.5961331999997,3.0319573999995555,472.2834256999995,"[0, 300]",[-0.012962962962962963],[0.19814814814814816],[1],[0],[0],[0.6863850999998249],[1],['target_find'],472.28482799999983,473.29698089999965,,,,,,,,,,,,,,,,,,,,,,,,,,,,,,,,983987,001,2023-11-13_12h57.40.245,Selektive Wahrnehmung,2023.2.3,60.009961653623,2023-11-13 13h02.00.388607 +0100,
schiff1,4,13,77,14,,,,,473.33296059999975,,,,,,,,,,473.2972538999993,473.33296059999975,475.3475211999994,476.3129406999997,3.016051100000368,477.33429309999974,"[300, -300]",[0.18055555555555555],[-0.19166666666666668],[1],[0],[0],[1.0204102999996394],[1],['target_find'],477.33571589999974,478.34793659999923,,,,,,,,,,,,,,,,,,,,,,,,,,,,,,,,983987,001,2023-11-13_12h57.40.245,Selektive Wahrnehmung,2023.2.3,60.009961653623,2023-11-13 13h02.00.388607 +0100,
gesicht2,4,14,78,9,,,,,478.3823840999994,,,,,,,,,,478.34854499999983,478.3823840999994,480.3973122999996,481.3626399999994,3.0147734000001947,482.0830240999994,"[300, 0]",[0.19074074074074074],[-0.03148148148148148],[1],[0],[0],[0.7194260999995095],[1],['target_find'],482.084433,483.0969030999995,,,,,,,,,,,,,,,,,,,,,,,,,,,,,,,,983987,001,2023-11-13_12h57.40.245,Selektive Wahrnehmung,2023.2.3,60.009961653623,2023-11-13 13h02.00.388607 +0100,
zug1,4,15,79,15,,,,,483.1293782999992,,,,,,,,,,483.0975168999994,483.1293782999992,485.1292776999999,486.1290003999993,2.9990885999995953,486.94927409999946,"[300, 300]",[0.22037037037037038],[0.1935185185185185],[1],[0],[0],[0.8519471999998132],[1],['target_find'],486.95067329999983,487.96382469999935,,,,,,,,,,,,,,,,,,,,,,,,,,,,,,,,983987,001,2023-11-13_12h57.40.245,Selektive Wahrnehmung,2023.2.3,60.009961653623,2023-11-13 13h02.00.388607 +0100,
,,,,,0,0,0,0,494.5801268999994,,,,,,,,,,,,,,,,,,,,,,,,,,,487.9777703999998,491.383006,491.3830291999993,494.5145201999994,494.5153840999992,504.5703853999994,1.0,3.0,gesicht2,,,,,,,,,,,,,,,,,,,,,,,983987,001,2023-11-13_12h57.40.245,Selektive Wahrnehmung,2023.2.3,60.009961653623,2023-11-13 13h02.00.388607 +0100,
,,,,,1,0,1,0,504.61460850000003,,,,,,,,,,,,,,,,,,,,,,,,,,,,,,,504.57076979999965,508.32007049999993,1.0,3.0,zug1,,,,,,,,,,,,,,,,,,,,,,,983987,001,2023-11-13_12h57.40.245,Selektive Wahrnehmung,2023.2.3,60.009961653623,2023-11-13 13h02.00.388607 +0100,
,,,,,2,0,2,0,508.38112939999974,,,,,,,,,,,,,,,,,,,,,,,,,,,,,,,508.32039389999954,513.9200230999995,1.0,2.0,schiff1,,,,,,,,,,,,,,,,,,,,,,,983987,001,2023-11-13_12h57.40.245,Selektive Wahrnehmung,2023.2.3,60.009961653623,2023-11-13 13h02.00.388607 +0100,
,,,,,3,0,3,0,513.9809614999995,,,,,,,,,,,,,,,,,,,,,,,,,,,,,,,513.9203478,517.4534700999993,1.0,2.0,gesicht3,,,,,,,,,,,,,,,,,,,,,,,983987,001,2023-11-13_12h57.40.245,Selektive Wahrnehmung,2023.2.3,60.009961653623,2023-11-13 13h02.00.388607 +0100,
,,,,,4,0,4,0,517.5140101999996,,,,,,,,,,,,,,,,,,,,,,,,,,,,,,,517.4538096999995,520.2855061,1.0,4.0,flugzeug1,,,,,,,,,,,,,,,,,,,,,,,983987,001,2023-11-13_12h57.40.245,Selektive Wahrnehmung,2023.2.3,60.009961653623,2023-11-13 13h02.00.388607 +0100,
,,,,,,,,,,,,,,,,,,,,,,,,,,,,,,,,,,,,,,,,,,,,,520.3039552,526.7642252999995, 19,1.0,526.7642483,539.0190622,3.0,1.0,539.0190837,543.0297550999994,543.0297866999999,560.1975919999995,5.0,3.0,4.0,2.0,560.1976202999995,566.7849133999998,1.0,1.0,566.7849319999996,567.4792748999998,,,,,,,,
