"target","trials.thisRepN","trials.thisTrialN","trials.thisN","trials.thisIndex","trials_2.thisRepN","trials_2.thisTrialN","trials_2.thisN","trials_2.thisIndex","mouse.time","mouse.corr","mouse.clicked_name","furcht.response","liebenswert.response","rated_image","age.text","gender.response","pc_frequency.response","reaction_games_frequency.response","neuro_1_rev.response","neuro_2.response","neuro_3.response","neuro_4_rev.response","specific_fear_spider.response","specific_fear_snake.response","id","date"
"",NA,NA,NA,NA,NA,NA,NA,NA,"","","",NA,NA,"",NA,NA,NA,NA,NA,NA,NA,NA,NA,NA,"001198","2023-11-13"
"",NA,NA,NA,NA,NA,NA,NA,NA,"","","",NA,NA,"",NA,NA,NA,NA,NA,NA,NA,NA,NA,NA,"001198","2023-11-13"
"schlange2",0,0,0,3,NA,NA,NA,NA,"[]","[]","[]",NA,NA,"",NA,NA,NA,NA,NA,NA,NA,NA,NA,NA,"001198","2023-11-13"
"auto1",0,1,1,12,NA,NA,NA,NA,"[]","[]","[]",NA,NA,"",NA,NA,NA,NA,NA,NA,NA,NA,NA,NA,"001198","2023-11-13"
"person2",0,2,2,5,NA,NA,NA,NA,"[1.5322704999998678]","[0]","['dis4']",NA,NA,"",NA,NA,NA,NA,NA,NA,NA,NA,NA,NA,"001198","2023-11-13"
"gesicht3",0,3,3,10,NA,NA,NA,NA,"[1.9492704000149388]","[]","[]",NA,NA,"",NA,NA,NA,NA,NA,NA,NA,NA,NA,NA,"001198","2023-11-13"
"schlange1",0,4,4,2,NA,NA,NA,NA,"[0.884289700014051]","[]","[]",NA,NA,"",NA,NA,NA,NA,NA,NA,NA,NA,NA,NA,"001198","2023-11-13"
"spinne1",0,5,5,0,NA,NA,NA,NA,"[2.076541200018255]","[0]","['dis1']",NA,NA,"",NA,NA,NA,NA,NA,NA,NA,NA,NA,NA,"001198","2023-11-13"
"flugzeug1",0,6,6,13,NA,NA,NA,NA,"[1.4829627000144683]","[0]","['dis5']",NA,NA,"",NA,NA,NA,NA,NA,NA,NA,NA,NA,NA,"001198","2023-11-13"
"gesicht4",0,7,7,11,NA,NA,NA,NA,"[1.2665429999760818]","[0]","['dis4']",NA,NA,"",NA,NA,NA,NA,NA,NA,NA,NA,NA,NA,"001198","2023-11-13"
"gruppe2",0,8,8,7,NA,NA,NA,NA,"[]","[]","[]",NA,NA,"",NA,NA,NA,NA,NA,NA,NA,NA,NA,NA,"001198","2023-11-13"
"zug1",0,9,9,15,NA,NA,NA,NA,"[1.1788714999856893]","[0]","['dis4']",NA,NA,"",NA,NA,NA,NA,NA,NA,NA,NA,NA,NA,"001198","2023-11-13"
"gesicht2",0,10,10,9,NA,NA,NA,NA,"[1.1293129999830853]","[0]","['dis3']",NA,NA,"",NA,NA,NA,NA,NA,NA,NA,NA,NA,NA,"001198","2023-11-13"
"person1",0,11,11,4,NA,NA,NA,NA,"[2.166447600000538]","[0]","['dis6']",NA,NA,"",NA,NA,NA,NA,NA,NA,NA,NA,NA,NA,"001198","2023-11-13"
"schiff1",0,12,12,14,NA,NA,NA,NA,"[2.7066631999914534]","[0]","['dis5']",NA,NA,"",NA,NA,NA,NA,NA,NA,NA,NA,NA,NA,"001198","2023-11-13"
"spinne2",0,13,13,1,NA,NA,NA,NA,"[]","[]","[]",NA,NA,"",NA,NA,NA,NA,NA,NA,NA,NA,NA,NA,"001198","2023-11-13"
"gruppe1",0,14,14,6,NA,NA,NA,NA,"[0.8667116000142414]","[0]","['dis8']",NA,NA,"",NA,NA,NA,NA,NA,NA,NA,NA,NA,NA,"001198","2023-11-13"
"gesicht1",0,15,15,8,NA,NA,NA,NA,"[1.5683984000061173]","[0]","['dis8']",NA,NA,"",NA,NA,NA,NA,NA,NA,NA,NA,NA,NA,"001198","2023-11-13"
"gesicht4",1,0,16,11,NA,NA,NA,NA,"[2.8950984999828506]","[0]","['dis4']",NA,NA,"",NA,NA,NA,NA,NA,NA,NA,NA,NA,NA,"001198","2023-11-13"
"schlange2",1,1,17,3,NA,NA,NA,NA,"[]","[]","[]",NA,NA,"",NA,NA,NA,NA,NA,NA,NA,NA,NA,NA,"001198","2023-11-13"
"gesicht1",1,2,18,8,NA,NA,NA,NA,"[1.9030022000079043]","[0]","['dis1']",NA,NA,"",NA,NA,NA,NA,NA,NA,NA,NA,NA,NA,"001198","2023-11-13"
"schlange1",1,3,19,2,NA,NA,NA,NA,"[1.1833427000092342]","[1]","['target_find']",NA,NA,"",NA,NA,NA,NA,NA,NA,NA,NA,NA,NA,"001198","2023-11-13"
"spinne1",1,4,20,0,NA,NA,NA,NA,"[1.6915823000017554]","[1]","['target_find']",NA,NA,"",NA,NA,NA,NA,NA,NA,NA,NA,NA,NA,"001198","2023-11-13"
"auto1",1,5,21,12,NA,NA,NA,NA,"[]","[]","[]",NA,NA,"",NA,NA,NA,NA,NA,NA,NA,NA,NA,NA,"001198","2023-11-13"
"person1",1,6,22,4,NA,NA,NA,NA,"[1.5804290999949444]","[0]","['dis4']",NA,NA,"",NA,NA,NA,NA,NA,NA,NA,NA,NA,NA,"001198","2023-11-13"
"gesicht2",1,7,23,9,NA,NA,NA,NA,"[1.8176881000108551]","[0]","['dis6']",NA,NA,"",NA,NA,NA,NA,NA,NA,NA,NA,NA,NA,"001198","2023-11-13"
"person2",1,8,24,5,NA,NA,NA,NA,"[]","[]","[]",NA,NA,"",NA,NA,NA,NA,NA,NA,NA,NA,NA,NA,"001198","2023-11-13"
"gesicht3",1,9,25,10,NA,NA,NA,NA,"[2.549573700001929]","[0]","['dis5']",NA,NA,"",NA,NA,NA,NA,NA,NA,NA,NA,NA,NA,"001198","2023-11-13"
"zug1",1,10,26,15,NA,NA,NA,NA,"[2.262366099981591]","[0]","['dis5']",NA,NA,"",NA,NA,NA,NA,NA,NA,NA,NA,NA,NA,"001198","2023-11-13"
"schiff1",1,11,27,14,NA,NA,NA,NA,"[2.884703099989565]","[0]","['dis2']",NA,NA,"",NA,NA,NA,NA,NA,NA,NA,NA,NA,NA,"001198","2023-11-13"
"gruppe2",1,12,28,7,NA,NA,NA,NA,"[2.714059799996903]","[0]","['dis1']",NA,NA,"",NA,NA,NA,NA,NA,NA,NA,NA,NA,NA,"001198","2023-11-13"
"flugzeug1",1,13,29,13,NA,NA,NA,NA,"[1.3831812999851536]","[0]","['dis3']",NA,NA,"",NA,NA,NA,NA,NA,NA,NA,NA,NA,NA,"001198","2023-11-13"
"spinne2",1,14,30,1,NA,NA,NA,NA,"[1.1001677000022028]","[1]","['target_find']",NA,NA,"",NA,NA,NA,NA,NA,NA,NA,NA,NA,NA,"001198","2023-11-13"
"gruppe1",1,15,31,6,NA,NA,NA,NA,"[3.082634099991992]","[0]","['dis5']",NA,NA,"",NA,NA,NA,NA,NA,NA,NA,NA,NA,NA,"001198","2023-11-13"
"zug1",2,0,32,15,NA,NA,NA,NA,"[]","[]","[]",NA,NA,"",NA,NA,NA,NA,NA,NA,NA,NA,NA,NA,"001198","2023-11-13"
"spinne1",2,1,33,0,NA,NA,NA,NA,"[2.465060699993046]","[1]","['target_find']",NA,NA,"",NA,NA,NA,NA,NA,NA,NA,NA,NA,NA,"001198","2023-11-13"
"schlange2",2,2,34,3,NA,NA,NA,NA,"[0.8067887999932282]","[1]","['target_find']",NA,NA,"",NA,NA,NA,NA,NA,NA,NA,NA,NA,NA,"001198","2023-11-13"
"schlange1",2,3,35,2,NA,NA,NA,NA,"[0.9163784999982454]","[1]","['target_find']",NA,NA,"",NA,NA,NA,NA,NA,NA,NA,NA,NA,NA,"001198","2023-11-13"
"gesicht2",2,4,36,9,NA,NA,NA,NA,"[0.6739774000016041]","[1]","['target_find']",NA,NA,"",NA,NA,NA,NA,NA,NA,NA,NA,NA,NA,"001198","2023-11-13"
"flugzeug1",2,5,37,13,NA,NA,NA,NA,"[1.0472347000031732]","[1]","['target_find']",NA,NA,"",NA,NA,NA,NA,NA,NA,NA,NA,NA,NA,"001198","2023-11-13"
"gruppe2",2,6,38,7,NA,NA,NA,NA,"[0.7171824999968521]","[1]","['target_find']",NA,NA,"",NA,NA,NA,NA,NA,NA,NA,NA,NA,NA,"001198","2023-11-13"
"gesicht4",2,7,39,11,NA,NA,NA,NA,"[0.8504326000111178]","[1]","['target_find']",NA,NA,"",NA,NA,NA,NA,NA,NA,NA,NA,NA,NA,"001198","2023-11-13"
"gesicht1",2,8,40,8,NA,NA,NA,NA,"[0.769708299980266]","[1]","['target_find']",NA,NA,"",NA,NA,NA,NA,NA,NA,NA,NA,NA,NA,"001198","2023-11-13"
"person2",2,9,41,5,NA,NA,NA,NA,"[0.7686271000129636]","[1]","['target_find']",NA,NA,"",NA,NA,NA,NA,NA,NA,NA,NA,NA,NA,"001198","2023-11-13"
"gesicht3",2,10,42,10,NA,NA,NA,NA,"[1.1339604000095278]","[1]","['target_find']",NA,NA,"",NA,NA,NA,NA,NA,NA,NA,NA,NA,NA,"001198","2023-11-13"
"gruppe1",2,11,43,6,NA,NA,NA,NA,"[1.1500860000087414]","[1]","['target_find']",NA,NA,"",NA,NA,NA,NA,NA,NA,NA,NA,NA,NA,"001198","2023-11-13"
"schiff1",2,12,44,14,NA,NA,NA,NA,"[1.011215100006666]","[1]","['target_find']",NA,NA,"",NA,NA,NA,NA,NA,NA,NA,NA,NA,NA,"001198","2023-11-13"
"auto1",2,13,45,12,NA,NA,NA,NA,"[1.0659981000062544]","[1]","['target_find']",NA,NA,"",NA,NA,NA,NA,NA,NA,NA,NA,NA,NA,"001198","2023-11-13"
"person1",2,14,46,4,NA,NA,NA,NA,"[0.6287341999995988]","[1]","['target_find']",NA,NA,"",NA,NA,NA,NA,NA,NA,NA,NA,NA,NA,"001198","2023-11-13"
"spinne2",2,15,47,1,NA,NA,NA,NA,"[0.6393559999996796]","[1]","['target_find']",NA,NA,"",NA,NA,NA,NA,NA,NA,NA,NA,NA,NA,"001198","2023-11-13"
"gruppe2",3,0,48,7,NA,NA,NA,NA,"[0.6674549999879673]","[1]","['target_find']",NA,NA,"",NA,NA,NA,NA,NA,NA,NA,NA,NA,NA,"001198","2023-11-13"
"spinne2",3,1,49,1,NA,NA,NA,NA,"[0.6518436000042129]","[1]","['target_find']",NA,NA,"",NA,NA,NA,NA,NA,NA,NA,NA,NA,NA,"001198","2023-11-13"
"zug1",3,2,50,15,NA,NA,NA,NA,"[0.5842905000026803]","[1]","['target_find']",NA,NA,"",NA,NA,NA,NA,NA,NA,NA,NA,NA,NA,"001198","2023-11-13"
"flugzeug1",3,3,51,13,NA,NA,NA,NA,"[1.5829647999780718]","[1]","['target_find']",NA,NA,"",NA,NA,NA,NA,NA,NA,NA,NA,NA,NA,"001198","2023-11-13"
"gesicht3",3,4,52,10,NA,NA,NA,NA,"[0.8554546000086702]","[1]","['target_find']",NA,NA,"",NA,NA,NA,NA,NA,NA,NA,NA,NA,NA,"001198","2023-11-13"
"gruppe1",3,5,53,6,NA,NA,NA,NA,"[1.1651414000079967]","[1]","['target_find']",NA,NA,"",NA,NA,NA,NA,NA,NA,NA,NA,NA,NA,"001198","2023-11-13"
"schlange2",3,6,54,3,NA,NA,NA,NA,"[1.4852829999872483]","[1]","['target_find']",NA,NA,"",NA,NA,NA,NA,NA,NA,NA,NA,NA,NA,"001198","2023-11-13"
"schiff1",3,7,55,14,NA,NA,NA,NA,"[1.117047800013097]","[1]","['target_find']",NA,NA,"",NA,NA,NA,NA,NA,NA,NA,NA,NA,NA,"001198","2023-11-13"
"person2",3,8,56,5,NA,NA,NA,NA,"[0.8320387999992818]","[1]","['target_find']",NA,NA,"",NA,NA,NA,NA,NA,NA,NA,NA,NA,NA,"001198","2023-11-13"
"gesicht2",3,9,57,9,NA,NA,NA,NA,"[0.9334805000107735]","[1]","['target_find']",NA,NA,"",NA,NA,NA,NA,NA,NA,NA,NA,NA,NA,"001198","2023-11-13"
"gesicht4",3,10,58,11,NA,NA,NA,NA,"[0.7689109000202734]","[1]","['target_find']",NA,NA,"",NA,NA,NA,NA,NA,NA,NA,NA,NA,NA,"001198","2023-11-13"
"person1",3,11,59,4,NA,NA,NA,NA,"[0.8964859999832697]","[1]","['target_find']",NA,NA,"",NA,NA,NA,NA,NA,NA,NA,NA,NA,NA,"001198","2023-11-13"
"spinne1",3,12,60,0,NA,NA,NA,NA,"[1.7819980999920517]","[1]","['target_find']",NA,NA,"",NA,NA,NA,NA,NA,NA,NA,NA,NA,NA,"001198","2023-11-13"
"schlange1",3,13,61,2,NA,NA,NA,NA,"[1.5671117000165395]","[1]","['target_find']",NA,NA,"",NA,NA,NA,NA,NA,NA,NA,NA,NA,NA,"001198","2023-11-13"
"auto1",3,14,62,12,NA,NA,NA,NA,"[0.8165498999878764]","[1]","['target_find']",NA,NA,"",NA,NA,NA,NA,NA,NA,NA,NA,NA,NA,"001198","2023-11-13"
"gesicht1",3,15,63,8,NA,NA,NA,NA,"[1.016865500016138]","[1]","['target_find']",NA,NA,"",NA,NA,NA,NA,NA,NA,NA,NA,NA,NA,"001198","2023-11-13"
"gesicht4",4,0,64,11,NA,NA,NA,NA,"[0.6480634000035934]","[1]","['target_find']",NA,NA,"",NA,NA,NA,NA,NA,NA,NA,NA,NA,NA,"001198","2023-11-13"
"flugzeug1",4,1,65,13,NA,NA,NA,NA,"[0.8913490000122692]","[1]","['target_find']",NA,NA,"",NA,NA,NA,NA,NA,NA,NA,NA,NA,NA,"001198","2023-11-13"
"schiff1",4,2,66,14,NA,NA,NA,NA,"[1.1967850000073668]","[1]","['target_find']",NA,NA,"",NA,NA,NA,NA,NA,NA,NA,NA,NA,NA,"001198","2023-11-13"
"schlange2",4,3,67,3,NA,NA,NA,NA,"[2.1328364000073634]","[1]","['target_find']",NA,NA,"",NA,NA,NA,NA,NA,NA,NA,NA,NA,NA,"001198","2023-11-13"
"gruppe2",4,4,68,7,NA,NA,NA,NA,"[0.9646313000121154]","[1]","['target_find']",NA,NA,"",NA,NA,NA,NA,NA,NA,NA,NA,NA,NA,"001198","2023-11-13"
"spinne1",4,5,69,0,NA,NA,NA,NA,"[0.9112700000114273]","[1]","['target_find']",NA,NA,"",NA,NA,NA,NA,NA,NA,NA,NA,NA,NA,"001198","2023-11-13"
"zug1",4,6,70,15,NA,NA,NA,NA,"[0.6998210000165273]","[1]","['target_find']",NA,NA,"",NA,NA,NA,NA,NA,NA,NA,NA,NA,NA,"001198","2023-11-13"
"person1",4,7,71,4,NA,NA,NA,NA,"[0.8830703000130598]","[1]","['target_find']",NA,NA,"",NA,NA,NA,NA,NA,NA,NA,NA,NA,NA,"001198","2023-11-13"
"person2",4,8,72,5,NA,NA,NA,NA,"[0.867791099997703]","[]","[]",NA,NA,"",NA,NA,NA,NA,NA,NA,NA,NA,NA,NA,"001198","2023-11-13"
"gesicht3",4,9,73,10,NA,NA,NA,NA,"[0.6157072999922093]","[1]","['target_find']",NA,NA,"",NA,NA,NA,NA,NA,NA,NA,NA,NA,NA,"001198","2023-11-13"
"gesicht1",4,10,74,8,NA,NA,NA,NA,"[1.0641445000073873]","[1]","['target_find']",NA,NA,"",NA,NA,NA,NA,NA,NA,NA,NA,NA,NA,"001198","2023-11-13"
"gruppe1",4,11,75,6,NA,NA,NA,NA,"[1.10056110000005]","[1]","['target_find']",NA,NA,"",NA,NA,NA,NA,NA,NA,NA,NA,NA,NA,"001198","2023-11-13"
"schlange1",4,12,76,2,NA,NA,NA,NA,"[1.338386299990816]","[1]","['target_find']",NA,NA,"",NA,NA,NA,NA,NA,NA,NA,NA,NA,NA,"001198","2023-11-13"
"gesicht2",4,13,77,9,NA,NA,NA,NA,"[0.5707380999810994]","[1]","['target_find']",NA,NA,"",NA,NA,NA,NA,NA,NA,NA,NA,NA,NA,"001198","2023-11-13"
"auto1",4,14,78,12,NA,NA,NA,NA,"[1.3273498000053223]","[1]","['target_find']",NA,NA,"",NA,NA,NA,NA,NA,NA,NA,NA,NA,NA,"001198","2023-11-13"
"spinne2",4,15,79,1,NA,NA,NA,NA,"[1.0665686000138521]","[1]","['target_find']",NA,NA,"",NA,NA,NA,NA,NA,NA,NA,NA,NA,NA,"001198","2023-11-13"
"",NA,NA,NA,NA,0,0,0,0,"","","","5","1","schlange1",NA,NA,NA,NA,NA,NA,NA,NA,NA,NA,"001198","2023-11-13"
"",NA,NA,NA,NA,1,0,1,0,"","","","3","3","schlange2",NA,NA,NA,NA,NA,NA,NA,NA,NA,NA,"001198","2023-11-13"
"",NA,NA,NA,NA,2,0,2,0,"","","","4","2","gesicht4",NA,NA,NA,NA,NA,NA,NA,NA,NA,NA,"001198","2023-11-13"
"",NA,NA,NA,NA,3,0,3,0,"","","","1","5","gesicht1",NA,NA,NA,NA,NA,NA,NA,NA,NA,NA,"001198","2023-11-13"
"",NA,NA,NA,NA,4,0,4,0,"","","","1","5","person2",NA,NA,NA,NA,NA,NA,NA,NA,NA,NA,"001198","2023-11-13"
"",NA,NA,NA,NA,NA,NA,NA,NA,"","","",NA,NA,"","20","1","2","1","4","4","5","2","5","4","001198","2023-11-13"
"",NA,NA,NA,NA,NA,NA,NA,NA,"","","",NA,NA,"",NA,NA,NA,NA,NA,NA,NA,NA,NA,NA,"001198","2023-11-13"
"",NA,NA,NA,NA,NA,NA,NA,NA,"","","",NA,NA,"",NA,NA,NA,NA,NA,NA,NA,NA,NA,NA,"001198","2023-11-13"
"gesicht3",0,0,0,10,NA,NA,NA,NA,"[1.1179462000727654]","[1]","['target_find']",NA,NA,"",NA,NA,NA,NA,NA,NA,NA,NA,NA,NA,"001198","2023-11-13"
"gesicht1",0,1,1,8,NA,NA,NA,NA,"[0.9690537001006305]","[1]","['target_find']",NA,NA,"",NA,NA,NA,NA,NA,NA,NA,NA,NA,NA,"001198","2023-11-13"
"schlange1",0,2,2,2,NA,NA,NA,NA,"[1.7196191996335983]","[1]","['target_find']",NA,NA,"",NA,NA,NA,NA,NA,NA,NA,NA,NA,NA,"001198","2023-11-13"
"person1",0,3,3,4,NA,NA,NA,NA,"[1.0019085998646915]","[1]","['target_find']",NA,NA,"",NA,NA,NA,NA,NA,NA,NA,NA,NA,NA,"001198","2023-11-13"
"spinne2",0,4,4,1,NA,NA,NA,NA,"[1.2851142999716103]","[1]","['target_find']",NA,NA,"",NA,NA,NA,NA,NA,NA,NA,NA,NA,NA,"001198","2023-11-13"
"schlange2",0,5,5,3,NA,NA,NA,NA,"[1.4674305999651551]","[1]","['target_find']",NA,NA,"",NA,NA,NA,NA,NA,NA,NA,NA,NA,NA,"001198","2023-11-13"
"spinne1",0,6,6,0,NA,NA,NA,NA,"[1.053953000344336]","[1]","['target_find']",NA,NA,"",NA,NA,NA,NA,NA,NA,NA,NA,NA,NA,"001198","2023-11-13"
"schiff1",0,7,7,14,NA,NA,NA,NA,"[0.6849099998362362]","[1]","['target_find']",NA,NA,"",NA,NA,NA,NA,NA,NA,NA,NA,NA,NA,"001198","2023-11-13"
"auto1",0,8,8,12,NA,NA,NA,NA,"[0.8512368998490274]","[1]","['target_find']",NA,NA,"",NA,NA,NA,NA,NA,NA,NA,NA,NA,NA,"001198","2023-11-13"
"zug1",0,9,9,15,NA,NA,NA,NA,"[1.233709099702537]","[1]","['target_find']",NA,NA,"",NA,NA,NA,NA,NA,NA,NA,NA,NA,NA,"001198","2023-11-13"
"gesicht4",0,10,10,11,NA,NA,NA,NA,"[0.8512983000837266]","[1]","['target_find']",NA,NA,"",NA,NA,NA,NA,NA,NA,NA,NA,NA,NA,"001198","2023-11-13"
"gruppe2",0,11,11,7,NA,NA,NA,NA,"[0.85181919997558]","[1]","['target_find']",NA,NA,"",NA,NA,NA,NA,NA,NA,NA,NA,NA,NA,"001198","2023-11-13"
"flugzeug1",0,12,12,13,NA,NA,NA,NA,"[1.3184260996058583]","[1]","['target_find']",NA,NA,"",NA,NA,NA,NA,NA,NA,NA,NA,NA,NA,"001198","2023-11-13"
"gruppe1",0,13,13,6,NA,NA,NA,NA,"[1.0002315999008715]","[1]","['target_find']",NA,NA,"",NA,NA,NA,NA,NA,NA,NA,NA,NA,NA,"001198","2023-11-13"
"person2",0,14,14,5,NA,NA,NA,NA,"[0.851581399794668]","[1]","['target_find']",NA,NA,"",NA,NA,NA,NA,NA,NA,NA,NA,NA,NA,"001198","2023-11-13"
"gesicht2",0,15,15,9,NA,NA,NA,NA,"[1.0026895999908447]","[1]","['target_find']",NA,NA,"",NA,NA,NA,NA,NA,NA,NA,NA,NA,NA,"001198","2023-11-13"
"schlange1",1,0,16,2,NA,NA,NA,NA,"[1.3354905000887811]","[1]","['target_find']",NA,NA,"",NA,NA,NA,NA,NA,NA,NA,NA,NA,NA,"001198","2023-11-13"
"spinne2",1,1,17,1,NA,NA,NA,NA,"[1.4185311999171972]","[1]","['target_find']",NA,NA,"",NA,NA,NA,NA,NA,NA,NA,NA,NA,NA,"001198","2023-11-13"
"schiff1",1,2,18,14,NA,NA,NA,NA,"[0.9018565001897514]","[1]","['target_find']",NA,NA,"",NA,NA,NA,NA,NA,NA,NA,NA,NA,NA,"001198","2023-11-13"
"gesicht2",1,3,19,9,NA,NA,NA,NA,"[0.8337459997273982]","[1]","['target_find']",NA,NA,"",NA,NA,NA,NA,NA,NA,NA,NA,NA,NA,"001198","2023-11-13"
"person2",1,4,20,5,NA,NA,NA,NA,"[0.7516542002558708]","[1]","['target_find']",NA,NA,"",NA,NA,NA,NA,NA,NA,NA,NA,NA,NA,"001198","2023-11-13"
"flugzeug1",1,5,21,13,NA,NA,NA,NA,"[0.9340940997935832]","[1]","['target_find']",NA,NA,"",NA,NA,NA,NA,NA,NA,NA,NA,NA,NA,"001198","2023-11-13"
"spinne1",1,6,22,0,NA,NA,NA,NA,"[1.4354546000249684]","[1]","['target_find']",NA,NA,"",NA,NA,NA,NA,NA,NA,NA,NA,NA,NA,"001198","2023-11-13"
"gruppe2",1,7,23,7,NA,NA,NA,NA,"[1.4682555999606848]","[1]","['target_find']",NA,NA,"",NA,NA,NA,NA,NA,NA,NA,NA,NA,NA,"001198","2023-11-13"
"gesicht1",1,8,24,8,NA,NA,NA,NA,"[0.7681851997040212]","[1]","['target_find']",NA,NA,"",NA,NA,NA,NA,NA,NA,NA,NA,NA,NA,"001198","2023-11-13"
"zug1",1,9,25,15,NA,NA,NA,NA,"[0.684043399989605]","[1]","['target_find']",NA,NA,"",NA,NA,NA,NA,NA,NA,NA,NA,NA,NA,"001198","2023-11-13"
"gesicht3",1,10,26,10,NA,NA,NA,NA,"[0.8856844999827445]","[1]","['target_find']",NA,NA,"",NA,NA,NA,NA,NA,NA,NA,NA,NA,NA,"001198","2023-11-13"
"schlange2",1,11,27,3,NA,NA,NA,NA,"[1.7687817001715302]","[1]","['target_find']",NA,NA,"",NA,NA,NA,NA,NA,NA,NA,NA,NA,NA,"001198","2023-11-13"
"auto1",1,12,28,12,NA,NA,NA,NA,"[0.6689787996001542]","[1]","['target_find']",NA,NA,"",NA,NA,NA,NA,NA,NA,NA,NA,NA,NA,"001198","2023-11-13"
"gesicht4",1,13,29,11,NA,NA,NA,NA,"[0.5016288999468088]","[1]","['target_find']",NA,NA,"",NA,NA,NA,NA,NA,NA,NA,NA,NA,NA,"001198","2023-11-13"
"gruppe1",1,14,30,6,NA,NA,NA,NA,"[0.9182974002324045]","[1]","['target_find']",NA,NA,"",NA,NA,NA,NA,NA,NA,NA,NA,NA,NA,"001198","2023-11-13"
"person1",1,15,31,4,NA,NA,NA,NA,"[1.0353367002680898]","[1]","['target_find']",NA,NA,"",NA,NA,NA,NA,NA,NA,NA,NA,NA,NA,"001198","2023-11-13"
"zug1",2,0,32,15,NA,NA,NA,NA,"[1.3355733999051154]","[1]","['target_find']",NA,NA,"",NA,NA,NA,NA,NA,NA,NA,NA,NA,NA,"001198","2023-11-13"
"gruppe1",2,1,33,6,NA,NA,NA,NA,"[0.8541556997224689]","[1]","['target_find']",NA,NA,"",NA,NA,NA,NA,NA,NA,NA,NA,NA,NA,"001198","2023-11-13"
"flugzeug1",2,2,34,13,NA,NA,NA,NA,"[1.4524620999582112]","[1]","['target_find']",NA,NA,"",NA,NA,NA,NA,NA,NA,NA,NA,NA,NA,"001198","2023-11-13"
"gesicht3",2,3,35,10,NA,NA,NA,NA,"[0.7188083999790251]","[1]","['target_find']",NA,NA,"",NA,NA,NA,NA,NA,NA,NA,NA,NA,NA,"001198","2023-11-13"
"gesicht1",2,4,36,8,NA,NA,NA,NA,"[0.9005801002494991]","[1]","['target_find']",NA,NA,"",NA,NA,NA,NA,NA,NA,NA,NA,NA,NA,"001198","2023-11-13"
"schlange2",2,5,37,3,NA,NA,NA,NA,"[1.6528320997022092]","[1]","['target_find']",NA,NA,"",NA,NA,NA,NA,NA,NA,NA,NA,NA,NA,"001198","2023-11-13"
"gruppe2",2,6,38,7,NA,NA,NA,NA,"[1.1000990997999907]","[1]","['target_find']",NA,NA,"",NA,NA,NA,NA,NA,NA,NA,NA,NA,NA,"001198","2023-11-13"
"person2",2,7,39,5,NA,NA,NA,NA,"[0.6361362999305129]","[1]","['target_find']",NA,NA,"",NA,NA,NA,NA,NA,NA,NA,NA,NA,NA,"001198","2023-11-13"
"gesicht4",2,8,40,11,NA,NA,NA,NA,"[0.8030373998917639]","[1]","['target_find']",NA,NA,"",NA,NA,NA,NA,NA,NA,NA,NA,NA,NA,"001198","2023-11-13"
"gesicht2",2,9,41,9,NA,NA,NA,NA,"[0.7018714002333581]","[1]","['target_find']",NA,NA,"",NA,NA,NA,NA,NA,NA,NA,NA,NA,NA,"001198","2023-11-13"
"schiff1",2,10,42,14,NA,NA,NA,NA,"[0.6663305000402033]","[1]","['target_find']",NA,NA,"",NA,NA,NA,NA,NA,NA,NA,NA,NA,NA,"001198","2023-11-13"
"auto1",2,11,43,12,NA,NA,NA,NA,"[1.0543788997456431]","[1]","['target_find']",NA,NA,"",NA,NA,NA,NA,NA,NA,NA,NA,NA,NA,"001198","2023-11-13"
"schlange1",2,12,44,2,NA,NA,NA,NA,"[0.8351611001417041]","[1]","['target_find']",NA,NA,"",NA,NA,NA,NA,NA,NA,NA,NA,NA,NA,"001198","2023-11-13"
"spinne1",2,13,45,0,NA,NA,NA,NA,"[1.8506675004027784]","[1]","['target_find']",NA,NA,"",NA,NA,NA,NA,NA,NA,NA,NA,NA,NA,"001198","2023-11-13"
"spinne2",2,14,46,1,NA,NA,NA,NA,"[0.9190496997907758]","[1]","['target_find']",NA,NA,"",NA,NA,NA,NA,NA,NA,NA,NA,NA,NA,"001198","2023-11-13"
"person1",2,15,47,4,NA,NA,NA,NA,"[1.084841599687934]","[1]","['target_find']",NA,NA,"",NA,NA,NA,NA,NA,NA,NA,NA,NA,NA,"001198","2023-11-13"
"schiff1",3,0,48,14,NA,NA,NA,NA,"[1.0013833004049957]","[1]","['target_find']",NA,NA,"",NA,NA,NA,NA,NA,NA,NA,NA,NA,NA,"001198","2023-11-13"
"gesicht3",3,1,49,10,NA,NA,NA,NA,"[1.0020492002367973]","[1]","['target_find']",NA,NA,"",NA,NA,NA,NA,NA,NA,NA,NA,NA,NA,"001198","2023-11-13"
"person2",3,2,50,5,NA,NA,NA,NA,"[0.7357080997899175]","[1]","['target_find']",NA,NA,"",NA,NA,NA,NA,NA,NA,NA,NA,NA,NA,"001198","2023-11-13"
"person1",3,3,51,4,NA,NA,NA,NA,"[0.8022602000273764]","[1]","['target_find']",NA,NA,"",NA,NA,NA,NA,NA,NA,NA,NA,NA,NA,"001198","2023-11-13"
"gesicht1",3,4,52,8,NA,NA,NA,NA,"[0.9509025001898408]","[1]","['target_find']",NA,NA,"",NA,NA,NA,NA,NA,NA,NA,NA,NA,NA,"001198","2023-11-13"
"flugzeug1",3,5,53,13,NA,NA,NA,NA,"[0.9525882001034915]","[1]","['target_find']",NA,NA,"",NA,NA,NA,NA,NA,NA,NA,NA,NA,NA,"001198","2023-11-13"
"gruppe1",3,6,54,6,NA,NA,NA,NA,"[0.685332200024277]","[1]","['target_find']",NA,NA,"",NA,NA,NA,NA,NA,NA,NA,NA,NA,NA,"001198","2023-11-13"
"zug1",3,7,55,15,NA,NA,NA,NA,"[1.4843375999480486]","[1]","['target_find']",NA,NA,"",NA,NA,NA,NA,NA,NA,NA,NA,NA,NA,"001198","2023-11-13"
"spinne1",3,8,56,0,NA,NA,NA,NA,"[1.4352225000038743]","[1]","['target_find']",NA,NA,"",NA,NA,NA,NA,NA,NA,NA,NA,NA,NA,"001198","2023-11-13"
"auto1",3,9,57,12,NA,NA,NA,NA,"[0.7516801999881864]","[1]","['target_find']",NA,NA,"",NA,NA,NA,NA,NA,NA,NA,NA,NA,NA,"001198","2023-11-13"
"spinne2",3,10,58,1,NA,NA,NA,NA,"[0.4357664999552071]","[1]","['target_find']",NA,NA,"",NA,NA,NA,NA,NA,NA,NA,NA,NA,NA,"001198","2023-11-13"
"schlange1",3,11,59,2,NA,NA,NA,NA,"[1.1836455999873579]","[1]","['target_find']",NA,NA,"",NA,NA,NA,NA,NA,NA,NA,NA,NA,NA,"001198","2023-11-13"
"gesicht4",3,12,60,11,NA,NA,NA,NA,"[0.5686089000664651]","[1]","['target_find']",NA,NA,"",NA,NA,NA,NA,NA,NA,NA,NA,NA,NA,"001198","2023-11-13"
"gruppe2",3,13,61,7,NA,NA,NA,NA,"[1.4683390003629029]","[1]","['target_find']",NA,NA,"",NA,NA,NA,NA,NA,NA,NA,NA,NA,NA,"001198","2023-11-13"
"gesicht2",3,14,62,9,NA,NA,NA,NA,"[0.802348599769175]","[1]","['target_find']",NA,NA,"",NA,NA,NA,NA,NA,NA,NA,NA,NA,NA,"001198","2023-11-13"
"schlange2",3,15,63,3,NA,NA,NA,NA,"[1.4182053999975324]","[1]","['target_find']",NA,NA,"",NA,NA,NA,NA,NA,NA,NA,NA,NA,NA,"001198","2023-11-13"
"gesicht4",4,0,64,11,NA,NA,NA,NA,"[0.7187124998308718]","[1]","['target_find']",NA,NA,"",NA,NA,NA,NA,NA,NA,NA,NA,NA,NA,"001198","2023-11-13"
"gruppe2",4,1,65,7,NA,NA,NA,NA,"[0.7019968996755779]","[1]","['target_find']",NA,NA,"",NA,NA,NA,NA,NA,NA,NA,NA,NA,NA,"001198","2023-11-13"
"spinne1",4,2,66,0,NA,NA,NA,NA,"[2.7008512997999787]","[1]","['target_find']",NA,NA,"",NA,NA,NA,NA,NA,NA,NA,NA,NA,NA,"001198","2023-11-13"
"schiff1",4,3,67,14,NA,NA,NA,NA,"[0.9848885997198522]","[1]","['target_find']",NA,NA,"",NA,NA,NA,NA,NA,NA,NA,NA,NA,NA,"001198","2023-11-13"
"flugzeug1",4,4,68,13,NA,NA,NA,NA,"[0.8527935999445617]","[1]","['target_find']",NA,NA,"",NA,NA,NA,NA,NA,NA,NA,NA,NA,NA,"001198","2023-11-13"
"gesicht3",4,5,69,10,NA,NA,NA,NA,"[0.5535841998644173]","[1]","['target_find']",NA,NA,"",NA,NA,NA,NA,NA,NA,NA,NA,NA,NA,"001198","2023-11-13"
"person2",4,6,70,5,NA,NA,NA,NA,"[0.8518523001112044]","[1]","['target_find']",NA,NA,"",NA,NA,NA,NA,NA,NA,NA,NA,NA,NA,"001198","2023-11-13"
"person1",4,7,71,4,NA,NA,NA,NA,"[1.1019532000645995]","[1]","['target_find']",NA,NA,"",NA,NA,NA,NA,NA,NA,NA,NA,NA,NA,"001198","2023-11-13"
"gesicht2",4,8,72,9,NA,NA,NA,NA,"[0.5511590000241995]","[1]","['target_find']",NA,NA,"",NA,NA,NA,NA,NA,NA,NA,NA,NA,NA,"001198","2023-11-13"
"spinne2",4,9,73,1,NA,NA,NA,NA,"[1.3360474999062717]","[1]","['target_find']",NA,NA,"",NA,NA,NA,NA,NA,NA,NA,NA,NA,NA,"001198","2023-11-13"
"schlange2",4,10,74,3,NA,NA,NA,NA,"[0.685166799928993]","[1]","['target_find']",NA,NA,"",NA,NA,NA,NA,NA,NA,NA,NA,NA,NA,"001198","2023-11-13"
"gesicht1",4,11,75,8,NA,NA,NA,NA,"[0.6204535998404026]","[1]","['target_find']",NA,NA,"",NA,NA,NA,NA,NA,NA,NA,NA,NA,NA,"001198","2023-11-13"
"auto1",4,12,76,12,NA,NA,NA,NA,"[0.8833976997993886]","[1]","['target_find']",NA,NA,"",NA,NA,NA,NA,NA,NA,NA,NA,NA,NA,"001198","2023-11-13"
"zug1",4,13,77,15,NA,NA,NA,NA,"[1.2190502001903951]","[1]","['target_find']",NA,NA,"",NA,NA,NA,NA,NA,NA,NA,NA,NA,NA,"001198","2023-11-13"
"gruppe1",4,14,78,6,NA,NA,NA,NA,"[0.5527082001790404]","[1]","['target_find']",NA,NA,"",NA,NA,NA,NA,NA,NA,NA,NA,NA,NA,"001198","2023-11-13"
"schlange1",4,15,79,2,NA,NA,NA,NA,"[0.8037538998760283]","[1]","['target_find']",NA,NA,"",NA,NA,NA,NA,NA,NA,NA,NA,NA,NA,"001198","2023-11-13"
"",NA,NA,NA,NA,0,0,0,0,"","","","4","1","gesicht3",NA,NA,NA,NA,NA,NA,NA,NA,NA,NA,"001198","2023-11-13"
"",NA,NA,NA,NA,1,0,1,0,"","","","1","5","gruppe1",NA,NA,NA,NA,NA,NA,NA,NA,NA,NA,"001198","2023-11-13"
"",NA,NA,NA,NA,2,0,2,0,"","","","1","4","flugzeug1",NA,NA,NA,NA,NA,NA,NA,NA,NA,NA,"001198","2023-11-13"
"",NA,NA,NA,NA,3,0,3,0,"","","","1","3","schlange2",NA,NA,NA,NA,NA,NA,NA,NA,NA,NA,"001198","2023-11-13"
"",NA,NA,NA,NA,4,0,4,0,"","","","4","1","gesicht2",NA,NA,NA,NA,NA,NA,NA,NA,NA,NA,"001198","2023-11-13"
"",NA,NA,NA,NA,NA,NA,NA,NA,"","","",NA,NA,"","19","1","2","1","2","4","4","2","4","4","001198","2023-11-13"
"",NA,NA,NA,NA,NA,NA,NA,NA,"","","","","","",NA,"","","","","","","","","","001198","2023-11-13"
"",NA,NA,NA,NA,NA,NA,NA,NA,"","","","","","",NA,"","","","","","","","","","001198","2023-11-13"
"spinne1",0,0,0,0,NA,NA,NA,NA,"[]","[]","[]","","","",NA,"","","","","","","","","","001198","2023-11-13"
"zug1",0,1,1,15,NA,NA,NA,NA,"[]","[]","[]","","","",NA,"","","","","","","","","","001198","2023-11-13"
"gesicht2",0,2,2,9,NA,NA,NA,NA,"[]","[]","[]","","","",NA,"","","","","","","","","","001198","2023-11-13"
"schlange2",0,3,3,3,NA,NA,NA,NA,"[]","[]","[]","","","",NA,"","","","","","","","","","001198","2023-11-13"
"auto1",0,4,4,12,NA,NA,NA,NA,"[]","[]","[]","","","",NA,"","","","","","","","","","001198","2023-11-13"
"gesicht1",0,5,5,8,NA,NA,NA,NA,"[]","[]","[]","","","",NA,"","","","","","","","","","001198","2023-11-13"
"gruppe2",0,6,6,7,NA,NA,NA,NA,"[]","[]","[]","","","",NA,"","","","","","","","","","001198","2023-11-13"
"gruppe1",0,7,7,6,NA,NA,NA,NA,"[]","[]","[]","","","",NA,"","","","","","","","","","001198","2023-11-13"
"schiff1",0,8,8,14,NA,NA,NA,NA,"[]","[]","[]","","","",NA,"","","","","","","","","","001198","2023-11-13"
"spinne2",0,9,9,1,NA,NA,NA,NA,"[]","[]","[]","","","",NA,"","","","","","","","","","001198","2023-11-13"
"schlange1",0,10,10,2,NA,NA,NA,NA,"[]","[]","[]","","","",NA,"","","","","","","","","","001198","2023-11-13"
"flugzeug1",0,11,11,13,NA,NA,NA,NA,"[]","[]","[]","","","",NA,"","","","","","","","","","001198","2023-11-13"
"person1",0,12,12,4,NA,NA,NA,NA,"[]","[]","[]","","","",NA,"","","","","","","","","","001198","2023-11-13"
"person2",0,13,13,5,NA,NA,NA,NA,"[]","[]","[]","","","",NA,"","","","","","","","","","001198","2023-11-13"
"gesicht3",0,14,14,10,NA,NA,NA,NA,"[]","[]","[]","","","",NA,"","","","","","","","","","001198","2023-11-13"
"gesicht4",0,15,15,11,NA,NA,NA,NA,"[]","[]","[]","","","",NA,"","","","","","","","","","001198","2023-11-13"
"spinne1",1,0,16,0,NA,NA,NA,NA,"[]","[]","[]","","","",NA,"","","","","","","","","","001198","2023-11-13"
"gesicht2",1,1,17,9,NA,NA,NA,NA,"[]","[]","[]","","","",NA,"","","","","","","","","","001198","2023-11-13"
"gruppe1",1,2,18,6,NA,NA,NA,NA,"[]","[]","[]","","","",NA,"","","","","","","","","","001198","2023-11-13"
"schiff1",1,3,19,14,NA,NA,NA,NA,"[]","[]","[]","","","",NA,"","","","","","","","","","001198","2023-11-13"
"gruppe2",1,4,20,7,NA,NA,NA,NA,"[]","[]","[]","","","",NA,"","","","","","","","","","001198","2023-11-13"
"flugzeug1",1,5,21,13,NA,NA,NA,NA,"[]","[]","[]","","","",NA,"","","","","","","","","","001198","2023-11-13"
"schlange2",1,6,22,3,NA,NA,NA,NA,"[]","[]","[]","","","",NA,"","","","","","","","","","001198","2023-11-13"
"gesicht3",1,7,23,10,NA,NA,NA,NA,"[]","[]","[]","","","",NA,"","","","","","","","","","001198","2023-11-13"
"person2",1,8,24,5,NA,NA,NA,NA,"[]","[]","[]","","","",NA,"","","","","","","","","","001198","2023-11-13"
"schlange1",1,9,25,2,NA,NA,NA,NA,"[]","[]","[]","","","",NA,"","","","","","","","","","001198","2023-11-13"
"zug1",1,10,26,15,NA,NA,NA,NA,"[]","[]","[]","","","",NA,"","","","","","","","","","001198","2023-11-13"
"gesicht4",1,11,27,11,NA,NA,NA,NA,"[]","[]","[]","","","",NA,"","","","","","","","","","001198","2023-11-13"
"person1",1,12,28,4,NA,NA,NA,NA,"[]","[]","[]","","","",NA,"","","","","","","","","","001198","2023-11-13"
"auto1",1,13,29,12,NA,NA,NA,NA,"[]","[]","[]","","","",NA,"","","","","","","","","","001198","2023-11-13"
"gesicht1",1,14,30,8,NA,NA,NA,NA,"[]","[]","[]","","","",NA,"","","","","","","","","","001198","2023-11-13"
"spinne2",1,15,31,1,NA,NA,NA,NA,"[]","[]","[]","","","",NA,"","","","","","","","","","001198","2023-11-13"
"auto1",2,0,32,12,NA,NA,NA,NA,"[]","[]","[]","","","",NA,"","","","","","","","","","001198","2023-11-13"
"gesicht4",2,1,33,11,NA,NA,NA,NA,"[]","[]","[]","","","",NA,"","","","","","","","","","001198","2023-11-13"
"person2",2,2,34,5,NA,NA,NA,NA,"[]","[]","[]","","","",NA,"","","","","","","","","","001198","2023-11-13"
"spinne1",2,3,35,0,NA,NA,NA,NA,"[]","[]","[]","","","",NA,"","","","","","","","","","001198","2023-11-13"
"gesicht1",2,4,36,8,NA,NA,NA,NA,"[]","[]","[]","","","",NA,"","","","","","","","","","001198","2023-11-13"
"person1",2,5,37,4,NA,NA,NA,NA,"[]","[]","[]","","","",NA,"","","","","","","","","","001198","2023-11-13"
"zug1",2,6,38,15,NA,NA,NA,NA,"[]","[]","[]","","","",NA,"","","","","","","","","","001198","2023-11-13"
"flugzeug1",2,7,39,13,NA,NA,NA,NA,"[]","[]","[]","","","",NA,"","","","","","","","","","001198","2023-11-13"
"gruppe2",2,8,40,7,NA,NA,NA,NA,"[]","[]","[]","","","",NA,"","","","","","","","","","001198","2023-11-13"
"schiff1",2,9,41,14,NA,NA,NA,NA,"[]","[]","[]","","","",NA,"","","","","","","","","","001198","2023-11-13"
"gesicht2",2,10,42,9,NA,NA,NA,NA,"[]","[]","[]","","","",NA,"","","","","","","","","","001198","2023-11-13"
"gruppe1",2,11,43,6,NA,NA,NA,NA,"[]","[]","[]","","","",NA,"","","","","","","","","","001198","2023-11-13"
"schlange2",2,12,44,3,NA,NA,NA,NA,"[]","[]","[]","","","",NA,"","","","","","","","","","001198","2023-11-13"
"schlange1",2,13,45,2,NA,NA,NA,NA,"[]","[]","[]","","","",NA,"","","","","","","","","","001198","2023-11-13"
"spinne2",2,14,46,1,NA,NA,NA,NA,"[]","[]","[]","","","",NA,"","","","","","","","","","001198","2023-11-13"
"gesicht3",2,15,47,10,NA,NA,NA,NA,"[]","[]","[]","","","",NA,"","","","","","","","","","001198","2023-11-13"
"spinne2",3,0,48,1,NA,NA,NA,NA,"[]","[]","[]","","","",NA,"","","","","","","","","","001198","2023-11-13"
"gesicht4",3,1,49,11,NA,NA,NA,NA,"[]","[]","[]","","","",NA,"","","","","","","","","","001198","2023-11-13"
"gruppe1",3,2,50,6,NA,NA,NA,NA,"[]","[]","[]","","","",NA,"","","","","","","","","","001198","2023-11-13"
"gruppe2",3,3,51,7,NA,NA,NA,NA,"[]","[]","[]","","","",NA,"","","","","","","","","","001198","2023-11-13"
"schlange2",3,4,52,3,NA,NA,NA,NA,"[]","[]","[]","","","",NA,"","","","","","","","","","001198","2023-11-13"
"gesicht1",3,5,53,8,NA,NA,NA,NA,"[]","[]","[]","","","",NA,"","","","","","","","","","001198","2023-11-13"
"person1",3,6,54,4,NA,NA,NA,NA,"[]","[]","[]","","","",NA,"","","","","","","","","","001198","2023-11-13"
"schiff1",3,7,55,14,NA,NA,NA,NA,"[]","[]","[]","","","",NA,"","","","","","","","","","001198","2023-11-13"
"flugzeug1",3,8,56,13,NA,NA,NA,NA,"[]","[]","[]","","","",NA,"","","","","","","","","","001198","2023-11-13"
"zug1",3,9,57,15,NA,NA,NA,NA,"[]","[]","[]","","","",NA,"","","","","","","","","","001198","2023-11-13"
"person2",3,10,58,5,NA,NA,NA,NA,"[]","[]","[]","","","",NA,"","","","","","","","","","001198","2023-11-13"
"auto1",3,11,59,12,NA,NA,NA,NA,"[]","[]","[]","","","",NA,"","","","","","","","","","001198","2023-11-13"
"schlange1",3,12,60,2,NA,NA,NA,NA,"[]","[]","[]","","","",NA,"","","","","","","","","","001198","2023-11-13"
"gesicht3",3,13,61,10,NA,NA,NA,NA,"[]","[]","[]","","","",NA,"","","","","","","","","","001198","2023-11-13"
"gesicht2",3,14,62,9,NA,NA,NA,NA,"[]","[]","[]","","","",NA,"","","","","","","","","","001198","2023-11-13"
"spinne1",3,15,63,0,NA,NA,NA,NA,"[]","[]","[]","","","",NA,"","","","","","","","","","001198","2023-11-13"
"person1",4,0,64,4,NA,NA,NA,NA,"[]","[]","[]","","","",NA,"","","","","","","","","","001198","2023-11-13"
"spinne1",4,1,65,0,NA,NA,NA,NA,"[]","[]","[]","","","",NA,"","","","","","","","","","001198","2023-11-13"
"gesicht2",4,2,66,9,NA,NA,NA,NA,"[]","[]","[]","","","",NA,"","","","","","","","","","001198","2023-11-13"
"gesicht3",4,3,67,10,NA,NA,NA,NA,"[]","[]","[]","","","",NA,"","","","","","","","","","001198","2023-11-13"
"schlange1",4,4,68,2,NA,NA,NA,NA,"[]","[]","[]","","","",NA,"","","","","","","","","","001198","2023-11-13"
"schlange2",4,5,69,3,NA,NA,NA,NA,"[]","[]","[]","","","",NA,"","","","","","","","","","001198","2023-11-13"
"gruppe1",4,6,70,6,NA,NA,NA,NA,"[]","[]","[]","","","",NA,"","","","","","","","","","001198","2023-11-13"
"person2",4,7,71,5,NA,NA,NA,NA,"[]","[]","[]","","","",NA,"","","","","","","","","","001198","2023-11-13"
"gruppe2",4,8,72,7,NA,NA,NA,NA,"[]","[]","[]","","","",NA,"","","","","","","","","","001198","2023-11-13"
"gesicht1",4,9,73,8,NA,NA,NA,NA,"[]","[]","[]","","","",NA,"","","","","","","","","","001198","2023-11-13"
"spinne2",4,10,74,1,NA,NA,NA,NA,"[]","[]","[]","","","",NA,"","","","","","","","","","001198","2023-11-13"
"zug1",4,11,75,15,NA,NA,NA,NA,"[]","[]","[]","","","",NA,"","","","","","","","","","001198","2023-11-13"
"schiff1",4,12,76,14,NA,NA,NA,NA,"[]","[]","[]","","","",NA,"","","","","","","","","","001198","2023-11-13"
"gesicht4",4,13,77,11,NA,NA,NA,NA,"[]","[]","[]","","","",NA,"","","","","","","","","","001198","2023-11-13"
"flugzeug1",4,14,78,13,NA,NA,NA,NA,"[]","[]","[]","","","",NA,"","","","","","","","","","001198","2023-11-13"
"auto1",4,15,79,12,NA,NA,NA,NA,"[]","[]","[]","","","",NA,"","","","","","","","","","001198","2023-11-13"
"",NA,NA,NA,NA,0,0,0,0,"","","","None","None","schlange2",NA,"","","","","","","","","","001198","2023-11-13"
"",NA,NA,NA,NA,1,0,1,0,"","","","None","None","gesicht2",NA,"","","","","","","","","","001198","2023-11-13"
"",NA,NA,NA,NA,2,0,2,0,"","","","None","None","auto1",NA,"","","","","","","","","","001198","2023-11-13"
"",NA,NA,NA,NA,3,0,3,0,"","","","None","None","gruppe1",NA,"","","","","","","","","","001198","2023-11-13"
"",NA,NA,NA,NA,4,0,4,0,"","","","None","None","person2",NA,"","","","","","","","","","001198","2023-11-13"
"",NA,NA,NA,NA,NA,NA,NA,NA,"","","","","","",NA,"None","None","None","None","None","None","None","None","None","001198","2023-11-13"
"",NA,NA,NA,NA,NA,NA,NA,NA,"","","",NA,NA,"",NA,NA,NA,NA,NA,NA,NA,NA,NA,NA,"001198","2023-11-13"
"",NA,NA,NA,NA,NA,NA,NA,NA,"","","",NA,NA,"",NA,NA,NA,NA,NA,NA,NA,NA,NA,NA,"001198","2023-11-13"
"flugzeug1",0,0,0,13,NA,NA,NA,NA,"[1.7055890001356602]","[1]","['target_find']",NA,NA,"",NA,NA,NA,NA,NA,NA,NA,NA,NA,NA,"001198","2023-11-13"
"gesicht2",0,1,1,9,NA,NA,NA,NA,"[1.0025181993842125]","[1]","['target_find']",NA,NA,"",NA,NA,NA,NA,NA,NA,NA,NA,NA,NA,"001198","2023-11-13"
"spinne2",0,2,2,1,NA,NA,NA,NA,"[0.9667939990758896]","[1]","['target_find']",NA,NA,"",NA,NA,NA,NA,NA,NA,NA,NA,NA,NA,"001198","2023-11-13"
"gruppe1",0,3,3,6,NA,NA,NA,NA,"[1.0860743001103401]","[1]","['target_find']",NA,NA,"",NA,NA,NA,NA,NA,NA,NA,NA,NA,NA,"001198","2023-11-13"
"auto1",0,4,4,12,NA,NA,NA,NA,"[0.7181187011301517]","[1]","['target_find']",NA,NA,"",NA,NA,NA,NA,NA,NA,NA,NA,NA,NA,"001198","2023-11-13"
"zug1",0,5,5,15,NA,NA,NA,NA,"[1.5352036990225315]","[1]","['target_find']",NA,NA,"",NA,NA,NA,NA,NA,NA,NA,NA,NA,NA,"001198","2023-11-13"
"schlange1",0,6,6,2,NA,NA,NA,NA,"[0.7872804012149572]","[1]","['target_find']",NA,NA,"",NA,NA,NA,NA,NA,NA,NA,NA,NA,NA,"001198","2023-11-13"
"schlange2",0,7,7,3,NA,NA,NA,NA,"[1.9346693009138107]","[1]","['target_find']",NA,NA,"",NA,NA,NA,NA,NA,NA,NA,NA,NA,NA,"001198","2023-11-13"
"gesicht1",0,8,8,8,NA,NA,NA,NA,"[0.8365608993917704]","[1]","['target_find']",NA,NA,"",NA,NA,NA,NA,NA,NA,NA,NA,NA,NA,"001198","2023-11-13"
"schiff1",0,9,9,14,NA,NA,NA,NA,"[0.9027772005647421]","[1]","['target_find']",NA,NA,"",NA,NA,NA,NA,NA,NA,NA,NA,NA,NA,"001198","2023-11-13"
"gesicht3",0,10,10,10,NA,NA,NA,NA,"[0.9353069998323917]","[1]","['target_find']",NA,NA,"",NA,NA,NA,NA,NA,NA,NA,NA,NA,NA,"001198","2023-11-13"
"person1",0,11,11,4,NA,NA,NA,NA,"[0.6688113994896412]","[1]","['target_find']",NA,NA,"",NA,NA,NA,NA,NA,NA,NA,NA,NA,NA,"001198","2023-11-13"
"spinne1",0,12,12,0,NA,NA,NA,NA,"[2.452012101188302]","[1]","['target_find']",NA,NA,"",NA,NA,NA,NA,NA,NA,NA,NA,NA,NA,"001198","2023-11-13"
"gesicht4",0,13,13,11,NA,NA,NA,NA,"[0.9172813985496759]","[1]","['target_find']",NA,NA,"",NA,NA,NA,NA,NA,NA,NA,NA,NA,NA,"001198","2023-11-13"
"person2",0,14,14,5,NA,NA,NA,NA,"[1.4516294989734888]","[1]","['target_find']",NA,NA,"",NA,NA,NA,NA,NA,NA,NA,NA,NA,NA,"001198","2023-11-13"
"gruppe2",0,15,15,7,NA,NA,NA,NA,"[1.035402599722147]","[1]","['target_find']",NA,NA,"",NA,NA,NA,NA,NA,NA,NA,NA,NA,NA,"001198","2023-11-13"
"gruppe2",1,0,16,7,NA,NA,NA,NA,"[0.9516780003905296]","[1]","['target_find']",NA,NA,"",NA,NA,NA,NA,NA,NA,NA,NA,NA,NA,"001198","2023-11-13"
"person2",1,1,17,5,NA,NA,NA,NA,"[0.7021805997937918]","[1]","['target_find']",NA,NA,"",NA,NA,NA,NA,NA,NA,NA,NA,NA,NA,"001198","2023-11-13"
"schlange2",1,2,18,3,NA,NA,NA,NA,"[1.1517016999423504]","[1]","['target_find']",NA,NA,"",NA,NA,NA,NA,NA,NA,NA,NA,NA,NA,"001198","2023-11-13"
"gesicht3",1,3,19,10,NA,NA,NA,NA,"[0.9691311996430159]","[1]","['target_find']",NA,NA,"",NA,NA,NA,NA,NA,NA,NA,NA,NA,NA,"001198","2023-11-13"
"gesicht4",1,4,20,11,NA,NA,NA,NA,"[0.8000280000269413]","[1]","['target_find']",NA,NA,"",NA,NA,NA,NA,NA,NA,NA,NA,NA,NA,"001198","2023-11-13"
"spinne2",1,5,21,1,NA,NA,NA,NA,"[1.0678004007786512]","[1]","['target_find']",NA,NA,"",NA,NA,NA,NA,NA,NA,NA,NA,NA,NA,"001198","2023-11-13"
"person1",1,6,22,4,NA,NA,NA,NA,"[0.8687722999602556]","[1]","['target_find']",NA,NA,"",NA,NA,NA,NA,NA,NA,NA,NA,NA,NA,"001198","2023-11-13"
"auto1",1,7,23,12,NA,NA,NA,NA,"[0.8182553015649319]","[1]","['target_find']",NA,NA,"",NA,NA,NA,NA,NA,NA,NA,NA,NA,NA,"001198","2023-11-13"
"gesicht1",1,8,24,8,NA,NA,NA,NA,"[1.5184995997697115]","[1]","['target_find']",NA,NA,"",NA,NA,NA,NA,NA,NA,NA,NA,NA,NA,"001198","2023-11-13"
"schlange1",1,9,25,2,NA,NA,NA,NA,"[0.7513095997273922]","[1]","['target_find']",NA,NA,"",NA,NA,NA,NA,NA,NA,NA,NA,NA,NA,"001198","2023-11-13"
"spinne1",1,10,26,0,NA,NA,NA,NA,"[0.950934199616313]","[1]","['target_find']",NA,NA,"",NA,NA,NA,NA,NA,NA,NA,NA,NA,NA,"001198","2023-11-13"
"gruppe1",1,11,27,6,NA,NA,NA,NA,"[0.8518438003957272]","[1]","['target_find']",NA,NA,"",NA,NA,NA,NA,NA,NA,NA,NA,NA,NA,"001198","2023-11-13"
"gesicht2",1,12,28,9,NA,NA,NA,NA,"[0.8683614004403353]","[1]","['target_find']",NA,NA,"",NA,NA,NA,NA,NA,NA,NA,NA,NA,NA,"001198","2023-11-13"
"zug1",1,13,29,15,NA,NA,NA,NA,"[1.4523060005158186]","[1]","['target_find']",NA,NA,"",NA,NA,NA,NA,NA,NA,NA,NA,NA,NA,"001198","2023-11-13"
"flugzeug1",1,14,30,13,NA,NA,NA,NA,"[1.6011654995381832]","[1]","['target_find']",NA,NA,"",NA,NA,NA,NA,NA,NA,NA,NA,NA,NA,"001198","2023-11-13"
"schiff1",1,15,31,14,NA,NA,NA,NA,"[1.084934400394559]","[1]","['target_find']",NA,NA,"",NA,NA,NA,NA,NA,NA,NA,NA,NA,NA,"001198","2023-11-13"
"gesicht1",2,0,32,8,NA,NA,NA,NA,"[0.7691040001809597]","[1]","['target_find']",NA,NA,"",NA,NA,NA,NA,NA,NA,NA,NA,NA,NA,"001198","2023-11-13"
"gruppe1",2,1,33,6,NA,NA,NA,NA,"[1.1858540009707212]","[1]","['target_find']",NA,NA,"",NA,NA,NA,NA,NA,NA,NA,NA,NA,NA,"001198","2023-11-13"
"spinne2",2,2,34,1,NA,NA,NA,NA,"[1.1007017996162176]","[1]","['target_find']",NA,NA,"",NA,NA,NA,NA,NA,NA,NA,NA,NA,NA,"001198","2023-11-13"
"schlange1",2,3,35,2,NA,NA,NA,NA,"[1.0352811999619007]","[1]","['target_find']",NA,NA,"",NA,NA,NA,NA,NA,NA,NA,NA,NA,NA,"001198","2023-11-13"
"spinne1",2,4,36,0,NA,NA,NA,NA,"[2.150679798796773]","[1]","['target_find']",NA,NA,"",NA,NA,NA,NA,NA,NA,NA,NA,NA,NA,"001198","2023-11-13"
"gruppe2",2,5,37,7,NA,NA,NA,NA,"[]","[]","[]",NA,NA,"",NA,NA,NA,NA,NA,NA,NA,NA,NA,NA,"001198","2023-11-13"
"schiff1",2,6,38,14,NA,NA,NA,NA,"[1.4340107012540102]","[1]","['target_find']",NA,NA,"",NA,NA,NA,NA,NA,NA,NA,NA,NA,NA,"001198","2023-11-13"
"person1",2,7,39,4,NA,NA,NA,NA,"[0.8696583006531]","[1]","['target_find']",NA,NA,"",NA,NA,NA,NA,NA,NA,NA,NA,NA,NA,"001198","2023-11-13"
"person2",2,8,40,5,NA,NA,NA,NA,"[0.901366300880909]","[1]","['target_find']",NA,NA,"",NA,NA,NA,NA,NA,NA,NA,NA,NA,NA,"001198","2023-11-13"
"gesicht2",2,9,41,9,NA,NA,NA,NA,"[0.8839318007230759]","[1]","['target_find']",NA,NA,"",NA,NA,NA,NA,NA,NA,NA,NA,NA,NA,"001198","2023-11-13"
"schlange2",2,10,42,3,NA,NA,NA,NA,"[1.0015778001397848]","[1]","['target_find']",NA,NA,"",NA,NA,NA,NA,NA,NA,NA,NA,NA,NA,"001198","2023-11-13"
"auto1",2,11,43,12,NA,NA,NA,NA,"[0.8348907008767128]","[1]","['target_find']",NA,NA,"",NA,NA,NA,NA,NA,NA,NA,NA,NA,NA,"001198","2023-11-13"
"zug1",2,12,44,15,NA,NA,NA,NA,"[0.8186793010681868]","[1]","['target_find']",NA,NA,"",NA,NA,NA,NA,NA,NA,NA,NA,NA,NA,"001198","2023-11-13"
"flugzeug1",2,13,45,13,NA,NA,NA,NA,"[1.318096399307251]","[1]","['target_find']",NA,NA,"",NA,NA,NA,NA,NA,NA,NA,NA,NA,NA,"001198","2023-11-13"
"gesicht3",2,14,46,10,NA,NA,NA,NA,"[0.8173417001962662]","[1]","['target_find']",NA,NA,"",NA,NA,NA,NA,NA,NA,NA,NA,NA,NA,"001198","2023-11-13"
"gesicht4",2,15,47,11,NA,NA,NA,NA,"[1.0354031007736921]","[1]","['target_find']",NA,NA,"",NA,NA,NA,NA,NA,NA,NA,NA,NA,NA,"001198","2023-11-13"
"schlange1",3,0,48,2,NA,NA,NA,NA,"[1.301418399438262]","[1]","['target_find']",NA,NA,"",NA,NA,NA,NA,NA,NA,NA,NA,NA,NA,"001198","2023-11-13"
"gesicht3",3,1,49,10,NA,NA,NA,NA,"[0.7835493013262749]","[1]","['target_find']",NA,NA,"",NA,NA,NA,NA,NA,NA,NA,NA,NA,NA,"001198","2023-11-13"
"flugzeug1",3,2,50,13,NA,NA,NA,NA,"[0.7847600001841784]","[1]","['target_find']",NA,NA,"",NA,NA,NA,NA,NA,NA,NA,NA,NA,NA,"001198","2023-11-13"
"schlange2",3,3,51,3,NA,NA,NA,NA,"[1.167391700670123]","[1]","['target_find']",NA,NA,"",NA,NA,NA,NA,NA,NA,NA,NA,NA,NA,"001198","2023-11-13"
"gesicht1",3,4,52,8,NA,NA,NA,NA,"[1.4515253007411957]","[1]","['target_find']",NA,NA,"",NA,NA,NA,NA,NA,NA,NA,NA,NA,NA,"001198","2023-11-13"
"spinne2",3,5,53,1,NA,NA,NA,NA,"[0.9356303997337818]","[1]","['target_find']",NA,NA,"",NA,NA,NA,NA,NA,NA,NA,NA,NA,NA,"001198","2023-11-13"
"gruppe1",3,6,54,6,NA,NA,NA,NA,"[1.2519036997109652]","[1]","['target_find']",NA,NA,"",NA,NA,NA,NA,NA,NA,NA,NA,NA,NA,"001198","2023-11-13"
"auto1",3,7,55,12,NA,NA,NA,NA,"[1.1686279010027647]","[1]","['target_find']",NA,NA,"",NA,NA,NA,NA,NA,NA,NA,NA,NA,NA,"001198","2023-11-13"
"gesicht4",3,8,56,11,NA,NA,NA,NA,"[0.8184214998036623]","[1]","['target_find']",NA,NA,"",NA,NA,NA,NA,NA,NA,NA,NA,NA,NA,"001198","2023-11-13"
"gruppe2",3,9,57,7,NA,NA,NA,NA,"[0.8518481999635696]","[1]","['target_find']",NA,NA,"",NA,NA,NA,NA,NA,NA,NA,NA,NA,NA,"001198","2023-11-13"
"spinne1",3,10,58,0,NA,NA,NA,NA,"[0.7861586008220911]","[1]","['target_find']",NA,NA,"",NA,NA,NA,NA,NA,NA,NA,NA,NA,NA,"001198","2023-11-13"
"gesicht2",3,11,59,9,NA,NA,NA,NA,"[0.7176070008426905]","[1]","['target_find']",NA,NA,"",NA,NA,NA,NA,NA,NA,NA,NA,NA,NA,"001198","2023-11-13"
"person2",3,12,60,5,NA,NA,NA,NA,"[0.6834134012460709]","[1]","['target_find']",NA,NA,"",NA,NA,NA,NA,NA,NA,NA,NA,NA,NA,"001198","2023-11-13"
"person1",3,13,61,4,NA,NA,NA,NA,"[0.9352973997592926]","[1]","['target_find']",NA,NA,"",NA,NA,NA,NA,NA,NA,NA,NA,NA,NA,"001198","2023-11-13"
"schiff1",3,14,62,14,NA,NA,NA,NA,"[1.1189478989690542]","[1]","['target_find']",NA,NA,"",NA,NA,NA,NA,NA,NA,NA,NA,NA,NA,"001198","2023-11-13"
"zug1",3,15,63,15,NA,NA,NA,NA,"[1.1850854996591806]","[1]","['target_find']",NA,NA,"",NA,NA,NA,NA,NA,NA,NA,NA,NA,NA,"001198","2023-11-13"
"gruppe1",4,0,64,6,NA,NA,NA,NA,"[0.7351929005235434]","[1]","['target_find']",NA,NA,"",NA,NA,NA,NA,NA,NA,NA,NA,NA,NA,"001198","2023-11-13"
"schiff1",4,1,65,14,NA,NA,NA,NA,"[0.8518273998051882]","[1]","['target_find']",NA,NA,"",NA,NA,NA,NA,NA,NA,NA,NA,NA,NA,"001198","2023-11-13"
"zug1",4,2,66,15,NA,NA,NA,NA,"[0.7345377001911402]","[1]","['target_find']",NA,NA,"",NA,NA,NA,NA,NA,NA,NA,NA,NA,NA,"001198","2023-11-13"
"schlange1",4,3,67,2,NA,NA,NA,NA,"[0.7338167000561953]","[1]","['target_find']",NA,NA,"",NA,NA,NA,NA,NA,NA,NA,NA,NA,NA,"001198","2023-11-13"
"spinne1",4,4,68,0,NA,NA,NA,NA,"[0.9352424014359713]","[1]","['target_find']",NA,NA,"",NA,NA,NA,NA,NA,NA,NA,NA,NA,NA,"001198","2023-11-13"
"person1",4,5,69,4,NA,NA,NA,NA,"[1.285454899072647]","[1]","['target_find']",NA,NA,"",NA,NA,NA,NA,NA,NA,NA,NA,NA,NA,"001198","2023-11-13"
"spinne2",4,6,70,1,NA,NA,NA,NA,"[1.8184011988341808]","[1]","['target_find']",NA,NA,"",NA,NA,NA,NA,NA,NA,NA,NA,NA,NA,"001198","2023-11-13"
"flugzeug1",4,7,71,13,NA,NA,NA,NA,"[0.9858116991817951]","[1]","['target_find']",NA,NA,"",NA,NA,NA,NA,NA,NA,NA,NA,NA,NA,"001198","2023-11-13"
"gesicht2",4,8,72,9,NA,NA,NA,NA,"[0.8515901006758213]","[1]","['target_find']",NA,NA,"",NA,NA,NA,NA,NA,NA,NA,NA,NA,NA,"001198","2023-11-13"
"gesicht1",4,9,73,8,NA,NA,NA,NA,"[0.9859069995582104]","[1]","['target_find']",NA,NA,"",NA,NA,NA,NA,NA,NA,NA,NA,NA,NA,"001198","2023-11-13"
"schlange2",4,10,74,3,NA,NA,NA,NA,"[1.6355494000017643]","[1]","['target_find']",NA,NA,"",NA,NA,NA,NA,NA,NA,NA,NA,NA,NA,"001198","2023-11-13"
"gesicht4",4,11,75,11,NA,NA,NA,NA,"[0.9186863992363214]","[1]","['target_find']",NA,NA,"",NA,NA,NA,NA,NA,NA,NA,NA,NA,NA,"001198","2023-11-13"
"gesicht3",4,12,76,10,NA,NA,NA,NA,"[0.7347766999155283]","[1]","['target_find']",NA,NA,"",NA,NA,NA,NA,NA,NA,NA,NA,NA,NA,"001198","2023-11-13"
"auto1",4,13,77,12,NA,NA,NA,NA,"[1.1853299997746944]","[1]","['target_find']",NA,NA,"",NA,NA,NA,NA,NA,NA,NA,NA,NA,NA,"001198","2023-11-13"
"gruppe2",4,14,78,7,NA,NA,NA,NA,"[0.9852789994329214]","[1]","['target_find']",NA,NA,"",NA,NA,NA,NA,NA,NA,NA,NA,NA,NA,"001198","2023-11-13"
"person2",4,15,79,5,NA,NA,NA,NA,"[0.651841601356864]","[1]","['target_find']",NA,NA,"",NA,NA,NA,NA,NA,NA,NA,NA,NA,NA,"001198","2023-11-13"
"",NA,NA,NA,NA,0,0,0,0,"","","","3","1","flugzeug1",NA,NA,NA,NA,NA,NA,NA,NA,NA,NA,"001198","2023-11-13"
"",NA,NA,NA,NA,1,0,1,0,"","","","3","1","schlange1",NA,NA,NA,NA,NA,NA,NA,NA,NA,NA,"001198","2023-11-13"
"",NA,NA,NA,NA,2,0,2,0,"","","","4","1","gesicht1",NA,NA,NA,NA,NA,NA,NA,NA,NA,NA,"001198","2023-11-13"
"",NA,NA,NA,NA,3,0,3,0,"","","","1","4","gruppe2",NA,NA,NA,NA,NA,NA,NA,NA,NA,NA,"001198","2023-11-13"
"",NA,NA,NA,NA,4,0,4,0,"","","","1","4","schlange2",NA,NA,NA,NA,NA,NA,NA,NA,NA,NA,"001198","2023-11-13"
"",NA,NA,NA,NA,NA,NA,NA,NA,"","","",NA,NA,"","18","1","1","1","4","2","4","2","2","3","001198","2023-11-13"
"",NA,NA,NA,NA,NA,NA,NA,NA,"","","",NA,NA,"",NA,NA,NA,NA,NA,NA,NA,NA,NA,NA,"001198","2023-11-13"
"",NA,NA,NA,NA,NA,NA,NA,NA,"","","",NA,NA,"",NA,NA,NA,NA,NA,NA,NA,NA,NA,NA,"001198","2023-11-13"
"gruppe1",0,0,0,6,NA,NA,NA,NA,"[1.2426140999996278]","[1]","['target_find']",NA,NA,"",NA,NA,NA,NA,NA,NA,NA,NA,NA,NA,"001198","2023-11-13"
"gesicht3",0,1,1,10,NA,NA,NA,NA,"[1.0852874000001975]","[1]","['target_find']",NA,NA,"",NA,NA,NA,NA,NA,NA,NA,NA,NA,NA,"001198","2023-11-13"
"spinne2",0,2,2,1,NA,NA,NA,NA,"[0.869753099999798]","[1]","['target_find']",NA,NA,"",NA,NA,NA,NA,NA,NA,NA,NA,NA,NA,"001198","2023-11-13"
"person1",0,3,3,4,NA,NA,NA,NA,"[1.1360029999996186]","[1]","['target_find']",NA,NA,"",NA,NA,NA,NA,NA,NA,NA,NA,NA,NA,"001198","2023-11-13"
"gruppe2",0,4,4,7,NA,NA,NA,NA,"[1.1344452999992427]","[1]","['target_find']",NA,NA,"",NA,NA,NA,NA,NA,NA,NA,NA,NA,NA,"001198","2023-11-13"
"zug1",0,5,5,15,NA,NA,NA,NA,"[0.9850891999994928]","[1]","['target_find']",NA,NA,"",NA,NA,NA,NA,NA,NA,NA,NA,NA,NA,"001198","2023-11-13"
"gesicht2",0,6,6,9,NA,NA,NA,NA,"[0.7523167999997895]","[1]","['target_find']",NA,NA,"",NA,NA,NA,NA,NA,NA,NA,NA,NA,NA,"001198","2023-11-13"
"spinne1",0,7,7,0,NA,NA,NA,NA,"[0.9347184999996898]","[1]","['target_find']",NA,NA,"",NA,NA,NA,NA,NA,NA,NA,NA,NA,NA,"001198","2023-11-13"
"schlange2",0,8,8,3,NA,NA,NA,NA,"[0.6524691000004168]","[1]","['target_find']",NA,NA,"",NA,NA,NA,NA,NA,NA,NA,NA,NA,NA,"001198","2023-11-13"
"auto1",0,9,9,12,NA,NA,NA,NA,"[1.2852048999993713]","[1]","['target_find']",NA,NA,"",NA,NA,NA,NA,NA,NA,NA,NA,NA,NA,"001198","2023-11-13"
"person2",0,10,10,5,NA,NA,NA,NA,"[0.6520244000003004]","[1]","['target_find']",NA,NA,"",NA,NA,NA,NA,NA,NA,NA,NA,NA,NA,"001198","2023-11-13"
"gesicht1",0,11,11,8,NA,NA,NA,NA,"[0.7175472000008085]","[1]","['target_find']",NA,NA,"",NA,NA,NA,NA,NA,NA,NA,NA,NA,NA,"001198","2023-11-13"
"flugzeug1",0,12,12,13,NA,NA,NA,NA,"[1.1511802000004536]","[1]","['target_find']",NA,NA,"",NA,NA,NA,NA,NA,NA,NA,NA,NA,NA,"001198","2023-11-13"
"schiff1",0,13,13,14,NA,NA,NA,NA,"[1.0348273999998128]","[1]","['target_find']",NA,NA,"",NA,NA,NA,NA,NA,NA,NA,NA,NA,NA,"001198","2023-11-13"
"schlange1",0,14,14,2,NA,NA,NA,NA,"[0.8678190000000541]","[1]","['target_find']",NA,NA,"",NA,NA,NA,NA,NA,NA,NA,NA,NA,NA,"001198","2023-11-13"
"gesicht4",0,15,15,11,NA,NA,NA,NA,"[0.7674087999994299]","[1]","['target_find']",NA,NA,"",NA,NA,NA,NA,NA,NA,NA,NA,NA,NA,"001198","2023-11-13"
"schlange1",1,0,16,2,NA,NA,NA,NA,"[0.8019235000001572]","[1]","['target_find']",NA,NA,"",NA,NA,NA,NA,NA,NA,NA,NA,NA,NA,"001198","2023-11-13"
"spinne2",1,1,17,1,NA,NA,NA,NA,"[0.951572999999371]","[1]","['target_find']",NA,NA,"",NA,NA,NA,NA,NA,NA,NA,NA,NA,NA,"001198","2023-11-13"
"gesicht3",1,2,18,10,NA,NA,NA,NA,"[0.8021711999999752]","[1]","['target_find']",NA,NA,"",NA,NA,NA,NA,NA,NA,NA,NA,NA,NA,"001198","2023-11-13"
"person2",1,3,19,5,NA,NA,NA,NA,"[0.702539799999613]","[1]","['target_find']",NA,NA,"",NA,NA,NA,NA,NA,NA,NA,NA,NA,NA,"001198","2023-11-13"
"zug1",1,4,20,15,NA,NA,NA,NA,"[0.8518976000004841]","[1]","['target_find']",NA,NA,"",NA,NA,NA,NA,NA,NA,NA,NA,NA,NA,"001198","2023-11-13"
"schlange2",1,5,21,3,NA,NA,NA,NA,"[1.3839724999997998]","[1]","['target_find']",NA,NA,"",NA,NA,NA,NA,NA,NA,NA,NA,NA,NA,"001198","2023-11-13"
"gruppe2",1,6,22,7,NA,NA,NA,NA,"[1.3347948000000542]","[1]","['target_find']",NA,NA,"",NA,NA,NA,NA,NA,NA,NA,NA,NA,NA,"001198","2023-11-13"
"gesicht4",1,7,23,11,NA,NA,NA,NA,"[0.8012935999995534]","[1]","['target_find']",NA,NA,"",NA,NA,NA,NA,NA,NA,NA,NA,NA,NA,"001198","2023-11-13"
"spinne1",1,8,24,0,NA,NA,NA,NA,"[0.6682064999995418]","[1]","['target_find']",NA,NA,"",NA,NA,NA,NA,NA,NA,NA,NA,NA,NA,"001198","2023-11-13"
"person1",1,9,25,4,NA,NA,NA,NA,"[0.6016880999995919]","[1]","['target_find']",NA,NA,"",NA,NA,NA,NA,NA,NA,NA,NA,NA,NA,"001198","2023-11-13"
"gesicht1",1,10,26,8,NA,NA,NA,NA,"[1.9186122000000978]","[1]","['target_find']",NA,NA,"",NA,NA,NA,NA,NA,NA,NA,NA,NA,NA,"001198","2023-11-13"
"gesicht2",1,11,27,9,NA,NA,NA,NA,"[0.8515153999996983]","[1]","['target_find']",NA,NA,"",NA,NA,NA,NA,NA,NA,NA,NA,NA,NA,"001198","2023-11-13"
"schiff1",1,12,28,14,NA,NA,NA,NA,"[0.9526342999997723]","[1]","['target_find']",NA,NA,"",NA,NA,NA,NA,NA,NA,NA,NA,NA,NA,"001198","2023-11-13"
"auto1",1,13,29,12,NA,NA,NA,NA,"[0.7011556999996174]","[1]","['target_find']",NA,NA,"",NA,NA,NA,NA,NA,NA,NA,NA,NA,NA,"001198","2023-11-13"
"gruppe1",1,14,30,6,NA,NA,NA,NA,"[0.8181934000003821]","[1]","['target_find']",NA,NA,"",NA,NA,NA,NA,NA,NA,NA,NA,NA,NA,"001198","2023-11-13"
"flugzeug1",1,15,31,13,NA,NA,NA,NA,"[0.7676518999996915]","[1]","['target_find']",NA,NA,"",NA,NA,NA,NA,NA,NA,NA,NA,NA,NA,"001198","2023-11-13"
"gesicht4",2,0,32,11,NA,NA,NA,NA,"[0.8006192000002557]","[1]","['target_find']",NA,NA,"",NA,NA,NA,NA,NA,NA,NA,NA,NA,NA,"001198","2023-11-13"
"gruppe2",2,1,33,7,NA,NA,NA,NA,"[0.7850143999994543]","[1]","['target_find']",NA,NA,"",NA,NA,NA,NA,NA,NA,NA,NA,NA,NA,"001198","2023-11-13"
"spinne1",2,2,34,0,NA,NA,NA,NA,"[1.6184056000001874]","[1]","['target_find']",NA,NA,"",NA,NA,NA,NA,NA,NA,NA,NA,NA,NA,"001198","2023-11-13"
"spinne2",2,3,35,1,NA,NA,NA,NA,"[0.8361793000003672]","[1]","['target_find']",NA,NA,"",NA,NA,NA,NA,NA,NA,NA,NA,NA,NA,"001198","2023-11-13"
"gruppe1",2,4,36,6,NA,NA,NA,NA,"[1.0017337999997835]","[1]","['target_find']",NA,NA,"",NA,NA,NA,NA,NA,NA,NA,NA,NA,NA,"001198","2023-11-13"
"person1",2,5,37,4,NA,NA,NA,NA,"[0.8169896999997945]","[1]","['target_find']",NA,NA,"",NA,NA,NA,NA,NA,NA,NA,NA,NA,NA,"001198","2023-11-13"
"zug1",2,6,38,15,NA,NA,NA,NA,"[0.5356363999999303]","[1]","['target_find']",NA,NA,"",NA,NA,NA,NA,NA,NA,NA,NA,NA,NA,"001198","2023-11-13"
"gesicht1",2,7,39,8,NA,NA,NA,NA,"[0.8009366000005684]","[1]","['target_find']",NA,NA,"",NA,NA,NA,NA,NA,NA,NA,NA,NA,NA,"001198","2023-11-13"
"schlange2",2,8,40,3,NA,NA,NA,NA,"[0.7176017000001593]","[1]","['target_find']",NA,NA,"",NA,NA,NA,NA,NA,NA,NA,NA,NA,NA,"001198","2023-11-13"
"flugzeug1",2,9,41,13,NA,NA,NA,NA,"[0.8362051000003703]","[1]","['target_find']",NA,NA,"",NA,NA,NA,NA,NA,NA,NA,NA,NA,NA,"001198","2023-11-13"
"gesicht2",2,10,42,9,NA,NA,NA,NA,"[1.3680005999995046]","[1]","['target_find']",NA,NA,"",NA,NA,NA,NA,NA,NA,NA,NA,NA,NA,"001198","2023-11-13"
"gesicht3",2,11,43,10,NA,NA,NA,NA,"[0.8670441000003848]","[1]","['target_find']",NA,NA,"",NA,NA,NA,NA,NA,NA,NA,NA,NA,NA,"001198","2023-11-13"
"auto1",2,12,44,12,NA,NA,NA,NA,"[1.1013208000003942]","[1]","['target_find']",NA,NA,"",NA,NA,NA,NA,NA,NA,NA,NA,NA,NA,"001198","2023-11-13"
"person2",2,13,45,5,NA,NA,NA,NA,"[0.9692457999999533]","[1]","['target_find']",NA,NA,"",NA,NA,NA,NA,NA,NA,NA,NA,NA,NA,"001198","2023-11-13"
"schlange1",2,14,46,2,NA,NA,NA,NA,"[1.0687969000000521]","[1]","['target_find']",NA,NA,"",NA,NA,NA,NA,NA,NA,NA,NA,NA,NA,"001198","2023-11-13"
"schiff1",2,15,47,14,NA,NA,NA,NA,"[0.9198702000003323]","[1]","['target_find']",NA,NA,"",NA,NA,NA,NA,NA,NA,NA,NA,NA,NA,"001198","2023-11-13"
"gesicht4",3,0,48,11,NA,NA,NA,NA,"[0.7842060000002675]","[1]","['target_find']",NA,NA,"",NA,NA,NA,NA,NA,NA,NA,NA,NA,NA,"001198","2023-11-13"
"schlange2",3,1,49,3,NA,NA,NA,NA,"[1.3346564000003127]","[]","[]",NA,NA,"",NA,NA,NA,NA,NA,NA,NA,NA,NA,NA,"001198","2023-11-13"
"gruppe1",3,2,50,6,NA,NA,NA,NA,"[0.9520572000001266]","[1]","['target_find']",NA,NA,"",NA,NA,NA,NA,NA,NA,NA,NA,NA,NA,"001198","2023-11-13"
"person1",3,3,51,4,NA,NA,NA,NA,"[0.5679581999993388]","[1]","['target_find']",NA,NA,"",NA,NA,NA,NA,NA,NA,NA,NA,NA,NA,"001198","2023-11-13"
"flugzeug1",3,4,52,13,NA,NA,NA,NA,"[1.9339944000003015]","[1]","['target_find']",NA,NA,"",NA,NA,NA,NA,NA,NA,NA,NA,NA,NA,"001198","2023-11-13"
"gesicht3",3,5,53,10,NA,NA,NA,NA,"[0.9867826999998215]","[1]","['target_find']",NA,NA,"",NA,NA,NA,NA,NA,NA,NA,NA,NA,NA,"001198","2023-11-13"
"spinne1",3,6,54,0,NA,NA,NA,NA,"[0.9700687000004109]","[1]","['target_find']",NA,NA,"",NA,NA,NA,NA,NA,NA,NA,NA,NA,NA,"001198","2023-11-13"
"schiff1",3,7,55,14,NA,NA,NA,NA,"[1.0847094000000652]","[1]","['target_find']",NA,NA,"",NA,NA,NA,NA,NA,NA,NA,NA,NA,NA,"001198","2023-11-13"
"auto1",3,8,56,12,NA,NA,NA,NA,"[0.7172588999983418]","[1]","['target_find']",NA,NA,"",NA,NA,NA,NA,NA,NA,NA,NA,NA,NA,"001198","2023-11-13"
"person2",3,9,57,5,NA,NA,NA,NA,"[1.4352211999994324]","[1]","['target_find']",NA,NA,"",NA,NA,NA,NA,NA,NA,NA,NA,NA,NA,"001198","2023-11-13"
"zug1",3,10,58,15,NA,NA,NA,NA,"[0.8860365000000456]","[1]","['target_find']",NA,NA,"",NA,NA,NA,NA,NA,NA,NA,NA,NA,NA,"001198","2023-11-13"
"spinne2",3,11,59,1,NA,NA,NA,NA,"[1.0344724000005954]","[1]","['target_find']",NA,NA,"",NA,NA,NA,NA,NA,NA,NA,NA,NA,NA,"001198","2023-11-13"
"gruppe2",3,12,60,7,NA,NA,NA,NA,"[0.836521499999435]","[1]","['target_find']",NA,NA,"",NA,NA,NA,NA,NA,NA,NA,NA,NA,NA,"001198","2023-11-13"
"gesicht2",3,13,61,9,NA,NA,NA,NA,"[0.7674110000007204]","[1]","['target_find']",NA,NA,"",NA,NA,NA,NA,NA,NA,NA,NA,NA,NA,"001198","2023-11-13"
"schlange1",3,14,62,2,NA,NA,NA,NA,"[1.3371824999994715]","[1]","['target_find']",NA,NA,"",NA,NA,NA,NA,NA,NA,NA,NA,NA,NA,"001198","2023-11-13"
"gesicht1",3,15,63,8,NA,NA,NA,NA,"[1.1344394999996439]","[1]","['target_find']",NA,NA,"",NA,NA,NA,NA,NA,NA,NA,NA,NA,NA,"001198","2023-11-13"
"person1",4,0,64,4,NA,NA,NA,NA,"[1.0348776999999245]","[1]","['target_find']",NA,NA,"",NA,NA,NA,NA,NA,NA,NA,NA,NA,NA,"001198","2023-11-13"
"gruppe2",4,1,65,7,NA,NA,NA,NA,"[0.9019692999991094]","[1]","['target_find']",NA,NA,"",NA,NA,NA,NA,NA,NA,NA,NA,NA,NA,"001198","2023-11-13"
"spinne2",4,2,66,1,NA,NA,NA,NA,"[0.9693157999990945]","[1]","['target_find']",NA,NA,"",NA,NA,NA,NA,NA,NA,NA,NA,NA,NA,"001198","2023-11-13"
"gesicht1",4,3,67,8,NA,NA,NA,NA,"[0.6667040000011184]","[1]","['target_find']",NA,NA,"",NA,NA,NA,NA,NA,NA,NA,NA,NA,NA,"001198","2023-11-13"
"gesicht2",4,4,68,9,NA,NA,NA,NA,"[1.1353180999994947]","[1]","['target_find']",NA,NA,"",NA,NA,NA,NA,NA,NA,NA,NA,NA,NA,"001198","2023-11-13"
"gesicht4",4,5,69,11,NA,NA,NA,NA,"[0.702080199998818]","[1]","['target_find']",NA,NA,"",NA,NA,NA,NA,NA,NA,NA,NA,NA,NA,"001198","2023-11-13"
"gruppe1",4,6,70,6,NA,NA,NA,NA,"[1.1182764999994106]","[1]","['target_find']",NA,NA,"",NA,NA,NA,NA,NA,NA,NA,NA,NA,NA,"001198","2023-11-13"
"zug1",4,7,71,15,NA,NA,NA,NA,"[0.9194732000014483]","[1]","['target_find']",NA,NA,"",NA,NA,NA,NA,NA,NA,NA,NA,NA,NA,"001198","2023-11-13"
"schlange1",4,8,72,2,NA,NA,NA,NA,"[1.0005779000002804]","[1]","['target_find']",NA,NA,"",NA,NA,NA,NA,NA,NA,NA,NA,NA,NA,"001198","2023-11-13"
"schiff1",4,9,73,14,NA,NA,NA,NA,"[1.1189240999992762]","[1]","['target_find']",NA,NA,"",NA,NA,NA,NA,NA,NA,NA,NA,NA,NA,"001198","2023-11-13"
"person2",4,10,74,5,NA,NA,NA,NA,"[0.8524192000004405]","[1]","['target_find']",NA,NA,"",NA,NA,NA,NA,NA,NA,NA,NA,NA,NA,"001198","2023-11-13"
"schlange2",4,11,75,3,NA,NA,NA,NA,"[1.8356733000000531]","[1]","['target_find']",NA,NA,"",NA,NA,NA,NA,NA,NA,NA,NA,NA,NA,"001198","2023-11-13"
"auto1",4,12,76,12,NA,NA,NA,NA,"[0.6519668999990245]","[1]","['target_find']",NA,NA,"",NA,NA,NA,NA,NA,NA,NA,NA,NA,NA,"001198","2023-11-13"
"flugzeug1",4,13,77,13,NA,NA,NA,NA,"[0.8526875000006839]","[1]","['target_find']",NA,NA,"",NA,NA,NA,NA,NA,NA,NA,NA,NA,NA,"001198","2023-11-13"
"spinne1",4,14,78,0,NA,NA,NA,NA,"[2.1344119000004866]","[1]","['target_find']",NA,NA,"",NA,NA,NA,NA,NA,NA,NA,NA,NA,NA,"001198","2023-11-13"
"gesicht3",4,15,79,10,NA,NA,NA,NA,"[0.7184479000006831]","[1]","['target_find']",NA,NA,"",NA,NA,NA,NA,NA,NA,NA,NA,NA,NA,"001198","2023-11-13"
"",NA,NA,NA,NA,0,0,0,0,"","","","4","2","spinne1",NA,NA,NA,NA,NA,NA,NA,NA,NA,NA,"001198","2023-11-13"
"",NA,NA,NA,NA,1,0,1,0,"","","","4","2","gesicht4",NA,NA,NA,NA,NA,NA,NA,NA,NA,NA,"001198","2023-11-13"
"",NA,NA,NA,NA,2,0,2,0,"","","","1","5","zug1",NA,NA,NA,NA,NA,NA,NA,NA,NA,NA,"001198","2023-11-13"
"",NA,NA,NA,NA,3,0,3,0,"","","","4","1","gruppe2",NA,NA,NA,NA,NA,NA,NA,NA,NA,NA,"001198","2023-11-13"
"",NA,NA,NA,NA,4,0,4,0,"","","","2","2","person2",NA,NA,NA,NA,NA,NA,NA,NA,NA,NA,"001198","2023-11-13"
"",NA,NA,NA,NA,NA,NA,NA,NA,"","","",NA,NA,"","21","1","2","1","2","4","2","2","3","2","001198","2023-11-13"
"",NA,NA,NA,NA,NA,NA,NA,NA,"","","",NA,NA,"",NA,NA,NA,NA,NA,NA,NA,NA,NA,NA,"001198","2023-11-13"
"",NA,NA,NA,NA,NA,NA,NA,NA,"","","",NA,NA,"",NA,NA,NA,NA,NA,NA,NA,NA,NA,NA,"001198","2023-11-13"
"spinne1",0,0,0,0,NA,NA,NA,NA,"[1.051652300000569]","[1]","['target_find']",NA,NA,"",NA,NA,NA,NA,NA,NA,NA,NA,NA,NA,"001198","2023-11-13"
"auto1",0,1,1,12,NA,NA,NA,NA,"[2.069150199999058]","[1]","['target_find']",NA,NA,"",NA,NA,NA,NA,NA,NA,NA,NA,NA,NA,"001198","2023-11-13"
"gesicht2",0,2,2,9,NA,NA,NA,NA,"[0.7851279999995313]","[1]","['target_find']",NA,NA,"",NA,NA,NA,NA,NA,NA,NA,NA,NA,NA,"001198","2023-11-13"
"person2",0,3,3,5,NA,NA,NA,NA,"[0.8509125000000495]","[1]","['target_find']",NA,NA,"",NA,NA,NA,NA,NA,NA,NA,NA,NA,NA,"001198","2023-11-13"
"gesicht4",0,4,4,11,NA,NA,NA,NA,"[0.668634399999064]","[1]","['target_find']",NA,NA,"",NA,NA,NA,NA,NA,NA,NA,NA,NA,NA,"001198","2023-11-13"
"gesicht1",0,5,5,8,NA,NA,NA,NA,"[0.7352482999995118]","[1]","['target_find']",NA,NA,"",NA,NA,NA,NA,NA,NA,NA,NA,NA,NA,"001198","2023-11-13"
"gruppe1",0,6,6,6,NA,NA,NA,NA,"[0.9353305000004184]","[1]","['target_find']",NA,NA,"",NA,NA,NA,NA,NA,NA,NA,NA,NA,NA,"001198","2023-11-13"
"gruppe2",0,7,7,7,NA,NA,NA,NA,"[1.2519962999995187]","[1]","['target_find']",NA,NA,"",NA,NA,NA,NA,NA,NA,NA,NA,NA,NA,"001198","2023-11-13"
"gesicht3",0,8,8,10,NA,NA,NA,NA,"[0.7699827999986155]","[1]","['target_find']",NA,NA,"",NA,NA,NA,NA,NA,NA,NA,NA,NA,NA,"001198","2023-11-13"
"schiff1",0,9,9,14,NA,NA,NA,NA,"[1.0026307999996789]","[1]","['target_find']",NA,NA,"",NA,NA,NA,NA,NA,NA,NA,NA,NA,NA,"001198","2023-11-13"
"schlange2",0,10,10,3,NA,NA,NA,NA,"[1.4848598000007769]","[1]","['target_find']",NA,NA,"",NA,NA,NA,NA,NA,NA,NA,NA,NA,NA,"001198","2023-11-13"
"person1",0,11,11,4,NA,NA,NA,NA,"[1.0355885999997554]","[1]","['target_find']",NA,NA,"",NA,NA,NA,NA,NA,NA,NA,NA,NA,NA,"001198","2023-11-13"
"schlange1",0,12,12,2,NA,NA,NA,NA,"[0.985542099999293]","[1]","['target_find']",NA,NA,"",NA,NA,NA,NA,NA,NA,NA,NA,NA,NA,"001198","2023-11-13"
"flugzeug1",0,13,13,13,NA,NA,NA,NA,"[1.4669066999995266]","[1]","['target_find']",NA,NA,"",NA,NA,NA,NA,NA,NA,NA,NA,NA,NA,"001198","2023-11-13"
"zug1",0,14,14,15,NA,NA,NA,NA,"[1.001202800000101]","[1]","['target_find']",NA,NA,"",NA,NA,NA,NA,NA,NA,NA,NA,NA,NA,"001198","2023-11-13"
"spinne2",0,15,15,1,NA,NA,NA,NA,"[0.9345042999993893]","[1]","['target_find']",NA,NA,"",NA,NA,NA,NA,NA,NA,NA,NA,NA,NA,"001198","2023-11-13"
"spinne1",1,0,16,0,NA,NA,NA,NA,"[1.3348354999998264]","[1]","['target_find']",NA,NA,"",NA,NA,NA,NA,NA,NA,NA,NA,NA,NA,"001198","2023-11-13"
"schlange1",1,1,17,2,NA,NA,NA,NA,"[0.9338174000004074]","[1]","['target_find']",NA,NA,"",NA,NA,NA,NA,NA,NA,NA,NA,NA,NA,"001198","2023-11-13"
"auto1",1,2,18,12,NA,NA,NA,NA,"[0.8514625000007072]","[1]","['target_find']",NA,NA,"",NA,NA,NA,NA,NA,NA,NA,NA,NA,NA,"001198","2023-11-13"
"gesicht3",1,3,19,10,NA,NA,NA,NA,"[0.5845408000004682]","[1]","['target_find']",NA,NA,"",NA,NA,NA,NA,NA,NA,NA,NA,NA,NA,"001198","2023-11-13"
"gruppe2",1,4,20,7,NA,NA,NA,NA,"[0.8692009999995207]","[1]","['target_find']",NA,NA,"",NA,NA,NA,NA,NA,NA,NA,NA,NA,NA,"001198","2023-11-13"
"person1",1,5,21,4,NA,NA,NA,NA,"[0.6523318999988987]","[1]","['target_find']",NA,NA,"",NA,NA,NA,NA,NA,NA,NA,NA,NA,NA,"001198","2023-11-13"
"gesicht2",1,6,22,9,NA,NA,NA,NA,"[0.5852104000005056]","[1]","['target_find']",NA,NA,"",NA,NA,NA,NA,NA,NA,NA,NA,NA,NA,"001198","2023-11-13"
"schlange2",1,7,23,3,NA,NA,NA,NA,"[1.5850537000005716]","[1]","['target_find']",NA,NA,"",NA,NA,NA,NA,NA,NA,NA,NA,NA,NA,"001198","2023-11-13"
"gruppe1",1,8,24,6,NA,NA,NA,NA,"[1.2349932999986777]","[1]","['target_find']",NA,NA,"",NA,NA,NA,NA,NA,NA,NA,NA,NA,NA,"001198","2023-11-13"
"schiff1",1,9,25,14,NA,NA,NA,NA,"[3.818715199999133]","[1]","['target_find']",NA,NA,"",NA,NA,NA,NA,NA,NA,NA,NA,NA,NA,"001198","2023-11-13"
"gesicht1",1,10,26,8,NA,NA,NA,NA,"[0.719009599999481]","[1]","['target_find']",NA,NA,"",NA,NA,NA,NA,NA,NA,NA,NA,NA,NA,"001198","2023-11-13"
"zug1",1,11,27,15,NA,NA,NA,NA,"[1.4200012000001152]","[1]","['target_find']",NA,NA,"",NA,NA,NA,NA,NA,NA,NA,NA,NA,NA,"001198","2023-11-13"
"flugzeug1",1,12,28,13,NA,NA,NA,NA,"[1.400163899999825]","[1]","['target_find']",NA,NA,"",NA,NA,NA,NA,NA,NA,NA,NA,NA,NA,"001198","2023-11-13"
"gesicht4",1,13,29,11,NA,NA,NA,NA,"[0.8363860000008572]","[1]","['target_find']",NA,NA,"",NA,NA,NA,NA,NA,NA,NA,NA,NA,NA,"001198","2023-11-13"
"person2",1,14,30,5,NA,NA,NA,NA,"[0.9524568000015279]","[1]","['target_find']",NA,NA,"",NA,NA,NA,NA,NA,NA,NA,NA,NA,NA,"001198","2023-11-13"
"spinne2",1,15,31,1,NA,NA,NA,NA,"[0.9521973999999318]","[1]","['target_find']",NA,NA,"",NA,NA,NA,NA,NA,NA,NA,NA,NA,NA,"001198","2023-11-13"
"spinne2",2,0,32,1,NA,NA,NA,NA,"[1.1686000999998214]","[1]","['target_find']",NA,NA,"",NA,NA,NA,NA,NA,NA,NA,NA,NA,NA,"001198","2023-11-13"
"zug1",2,1,33,15,NA,NA,NA,NA,"[0.9351586000011594]","[1]","['target_find']",NA,NA,"",NA,NA,NA,NA,NA,NA,NA,NA,NA,NA,"001198","2023-11-13"
"spinne1",2,2,34,0,NA,NA,NA,NA,"[1.3345084000011411]","[1]","['target_find']",NA,NA,"",NA,NA,NA,NA,NA,NA,NA,NA,NA,NA,"001198","2023-11-13"
"gesicht2",2,3,35,9,NA,NA,NA,NA,"[0.7348020999997971]","[1]","['target_find']",NA,NA,"",NA,NA,NA,NA,NA,NA,NA,NA,NA,NA,"001198","2023-11-13"
"gesicht4",2,4,36,11,NA,NA,NA,NA,"[0.5855277000009664]","[1]","['target_find']",NA,NA,"",NA,NA,NA,NA,NA,NA,NA,NA,NA,NA,"001198","2023-11-13"
"flugzeug1",2,5,37,13,NA,NA,NA,NA,"[1.4855774000006932]","[1]","['target_find']",NA,NA,"",NA,NA,NA,NA,NA,NA,NA,NA,NA,NA,"001198","2023-11-13"
"person1",2,6,38,4,NA,NA,NA,NA,"[0.9520501999995759]","[1]","['target_find']",NA,NA,"",NA,NA,NA,NA,NA,NA,NA,NA,NA,NA,"001198","2023-11-13"
"gesicht1",2,7,39,8,NA,NA,NA,NA,"[0.8695353999992221]","[1]","['target_find']",NA,NA,"",NA,NA,NA,NA,NA,NA,NA,NA,NA,NA,"001198","2023-11-13"
"schlange2",2,8,40,3,NA,NA,NA,NA,"[2.1531159999994998]","[1]","['target_find']",NA,NA,"",NA,NA,NA,NA,NA,NA,NA,NA,NA,NA,"001198","2023-11-13"
"gesicht3",2,9,41,10,NA,NA,NA,NA,"[0.635241699999824]","[1]","['target_find']",NA,NA,"",NA,NA,NA,NA,NA,NA,NA,NA,NA,NA,"001198","2023-11-13"
"schiff1",2,10,42,14,NA,NA,NA,NA,"[0.8177247000003263]","[1]","['target_find']",NA,NA,"",NA,NA,NA,NA,NA,NA,NA,NA,NA,NA,"001198","2023-11-13"
"gruppe1",2,11,43,6,NA,NA,NA,NA,"[1.0354121000000305]","[1]","['target_find']",NA,NA,"",NA,NA,NA,NA,NA,NA,NA,NA,NA,NA,"001198","2023-11-13"
"gruppe2",2,12,44,7,NA,NA,NA,NA,"[0.9844248999997944]","[1]","['target_find']",NA,NA,"",NA,NA,NA,NA,NA,NA,NA,NA,NA,NA,"001198","2023-11-13"
"person2",2,13,45,5,NA,NA,NA,NA,"[0.8348000999994838]","[1]","['target_find']",NA,NA,"",NA,NA,NA,NA,NA,NA,NA,NA,NA,NA,"001198","2023-11-13"
"schlange1",2,14,46,2,NA,NA,NA,NA,"[0.8521481999996467]","[1]","['target_find']",NA,NA,"",NA,NA,NA,NA,NA,NA,NA,NA,NA,NA,"001198","2023-11-13"
"auto1",2,15,47,12,NA,NA,NA,NA,"[0.9184666999990441]","[1]","['target_find']",NA,NA,"",NA,NA,NA,NA,NA,NA,NA,NA,NA,NA,"001198","2023-11-13"
"gruppe2",3,0,48,7,NA,NA,NA,NA,"[1.0191809000007197]","[1]","['target_find']",NA,NA,"",NA,NA,NA,NA,NA,NA,NA,NA,NA,NA,"001198","2023-11-13"
"gesicht1",3,1,49,8,NA,NA,NA,NA,"[0.6845585000010033]","[1]","['target_find']",NA,NA,"",NA,NA,NA,NA,NA,NA,NA,NA,NA,NA,"001198","2023-11-13"
"gruppe1",3,2,50,6,NA,NA,NA,NA,"[0.8015233999994962]","[1]","['target_find']",NA,NA,"",NA,NA,NA,NA,NA,NA,NA,NA,NA,NA,"001198","2023-11-13"
"flugzeug1",3,3,51,13,NA,NA,NA,NA,"[1.1869250999989163]","[1]","['target_find']",NA,NA,"",NA,NA,NA,NA,NA,NA,NA,NA,NA,NA,"001198","2023-11-13"
"zug1",3,4,52,15,NA,NA,NA,NA,"[0.9521336999987398]","[1]","['target_find']",NA,NA,"",NA,NA,NA,NA,NA,NA,NA,NA,NA,NA,"001198","2023-11-13"
"schlange1",3,5,53,2,NA,NA,NA,NA,"[1.0509577000011632]","[1]","['target_find']",NA,NA,"",NA,NA,NA,NA,NA,NA,NA,NA,NA,NA,"001198","2023-11-13"
"spinne1",3,6,54,0,NA,NA,NA,NA,"[1.2682557999996789]","[1]","['target_find']",NA,NA,"",NA,NA,NA,NA,NA,NA,NA,NA,NA,NA,"001198","2023-11-13"
"schlange2",3,7,55,3,NA,NA,NA,NA,"[1.9021899999988818]","[1]","['target_find']",NA,NA,"",NA,NA,NA,NA,NA,NA,NA,NA,NA,NA,"001198","2023-11-13"
"gesicht2",3,8,56,9,NA,NA,NA,NA,"[0.8026647999995475]","[1]","['target_find']",NA,NA,"",NA,NA,NA,NA,NA,NA,NA,NA,NA,NA,"001198","2023-11-13"
"gesicht3",3,9,57,10,NA,NA,NA,NA,"[0.48622230000000854]","[1]","['target_find']",NA,NA,"",NA,NA,NA,NA,NA,NA,NA,NA,NA,NA,"001198","2023-11-13"
"schiff1",3,10,58,14,NA,NA,NA,NA,"[1.234866200000397]","[1]","['target_find']",NA,NA,"",NA,NA,NA,NA,NA,NA,NA,NA,NA,NA,"001198","2023-11-13"
"spinne2",3,11,59,1,NA,NA,NA,NA,"[1.0858764999993582]","[1]","['target_find']",NA,NA,"",NA,NA,NA,NA,NA,NA,NA,NA,NA,NA,"001198","2023-11-13"
"auto1",3,12,60,12,NA,NA,NA,NA,"[0.8673182999991695]","[1]","['target_find']",NA,NA,"",NA,NA,NA,NA,NA,NA,NA,NA,NA,NA,"001198","2023-11-13"
"person2",3,13,61,5,NA,NA,NA,NA,"[0.9184929999992164]","[1]","['target_find']",NA,NA,"",NA,NA,NA,NA,NA,NA,NA,NA,NA,NA,"001198","2023-11-13"
"gesicht4",3,14,62,11,NA,NA,NA,NA,"[1.2691570999995747]","[1]","['target_find']",NA,NA,"",NA,NA,NA,NA,NA,NA,NA,NA,NA,NA,"001198","2023-11-13"
"person1",3,15,63,4,NA,NA,NA,NA,"[0.8016190999987884]","[1]","['target_find']",NA,NA,"",NA,NA,NA,NA,NA,NA,NA,NA,NA,NA,"001198","2023-11-13"
"person2",4,0,64,5,NA,NA,NA,NA,"[0.783891400000357]","[1]","['target_find']",NA,NA,"",NA,NA,NA,NA,NA,NA,NA,NA,NA,NA,"001198","2023-11-13"
"spinne2",4,1,65,1,NA,NA,NA,NA,"[0.5175536999995529]","[1]","['target_find']",NA,NA,"",NA,NA,NA,NA,NA,NA,NA,NA,NA,NA,"001198","2023-11-13"
"auto1",4,2,66,12,NA,NA,NA,NA,"[1.4863244999996823]","[1]","['target_find']",NA,NA,"",NA,NA,NA,NA,NA,NA,NA,NA,NA,NA,"001198","2023-11-13"
"schiff1",4,3,67,14,NA,NA,NA,NA,"[1.0174765000010666]","[1]","['target_find']",NA,NA,"",NA,NA,NA,NA,NA,NA,NA,NA,NA,NA,"001198","2023-11-13"
"flugzeug1",4,4,68,13,NA,NA,NA,NA,"[2.301663500000359]","[1]","['target_find']",NA,NA,"",NA,NA,NA,NA,NA,NA,NA,NA,NA,NA,"001198","2023-11-13"
"spinne1",4,5,69,0,NA,NA,NA,NA,"[1.8173022999999375]","[1]","['target_find']",NA,NA,"",NA,NA,NA,NA,NA,NA,NA,NA,NA,NA,"001198","2023-11-13"
"gruppe1",4,6,70,6,NA,NA,NA,NA,"[0.8529197999996541]","[1]","['target_find']",NA,NA,"",NA,NA,NA,NA,NA,NA,NA,NA,NA,NA,"001198","2023-11-13"
"gesicht1",4,7,71,8,NA,NA,NA,NA,"[0.9847850999994989]","[1]","['target_find']",NA,NA,"",NA,NA,NA,NA,NA,NA,NA,NA,NA,NA,"001198","2023-11-13"
"schlange1",4,8,72,2,NA,NA,NA,NA,"[0.8686390999992]","[1]","['target_find']",NA,NA,"",NA,NA,NA,NA,NA,NA,NA,NA,NA,NA,"001198","2023-11-13"
"schlange2",4,9,73,3,NA,NA,NA,NA,"[1.086200400000962]","[1]","['target_find']",NA,NA,"",NA,NA,NA,NA,NA,NA,NA,NA,NA,NA,"001198","2023-11-13"
"gesicht3",4,10,74,10,NA,NA,NA,NA,"[1.0162457000005816]","[1]","['target_find']",NA,NA,"",NA,NA,NA,NA,NA,NA,NA,NA,NA,NA,"001198","2023-11-13"
"person1",4,11,75,4,NA,NA,NA,NA,"[0.9683554000002914]","[1]","['target_find']",NA,NA,"",NA,NA,NA,NA,NA,NA,NA,NA,NA,NA,"001198","2023-11-13"
"gesicht4",4,12,76,11,NA,NA,NA,NA,"[0.9179669999994076]","[1]","['target_find']",NA,NA,"",NA,NA,NA,NA,NA,NA,NA,NA,NA,NA,"001198","2023-11-13"
"gruppe2",4,13,77,7,NA,NA,NA,NA,"[1.9685981000002357]","[1]","['target_find']",NA,NA,"",NA,NA,NA,NA,NA,NA,NA,NA,NA,NA,"001198","2023-11-13"
"zug1",4,14,78,15,NA,NA,NA,NA,"[0.8189137999997911]","[1]","['target_find']",NA,NA,"",NA,NA,NA,NA,NA,NA,NA,NA,NA,NA,"001198","2023-11-13"
"gesicht2",4,15,79,9,NA,NA,NA,NA,"[0.6840962999995099]","[1]","['target_find']",NA,NA,"",NA,NA,NA,NA,NA,NA,NA,NA,NA,NA,"001198","2023-11-13"
"",NA,NA,NA,NA,0,0,0,0,"","","","1","1","gesicht2",NA,NA,NA,NA,NA,NA,NA,NA,NA,NA,"001198","2023-11-13"
"",NA,NA,NA,NA,1,0,1,0,"","","","1","1","schlange1",NA,NA,NA,NA,NA,NA,NA,NA,NA,NA,"001198","2023-11-13"
"",NA,NA,NA,NA,2,0,2,0,"","","","1","1","gesicht4",NA,NA,NA,NA,NA,NA,NA,NA,NA,NA,"001198","2023-11-13"
"",NA,NA,NA,NA,3,0,3,0,"","","","1","5","spinne2",NA,NA,NA,NA,NA,NA,NA,NA,NA,NA,"001198","2023-11-13"
"",NA,NA,NA,NA,4,0,4,0,"","","","1","1","schiff1",NA,NA,NA,NA,NA,NA,NA,NA,NA,NA,"001198","2023-11-13"
"",NA,NA,NA,NA,NA,NA,NA,NA,"","","",NA,NA,"","22","1","2","3","4","4","5","2","2","3","001198","2023-11-13"
"",NA,NA,NA,NA,NA,NA,NA,NA,"","","",NA,NA,"",NA,NA,NA,NA,NA,NA,NA,NA,NA,NA,"001198","2023-11-13"
"",NA,NA,NA,NA,NA,NA,NA,NA,"","","",NA,NA,"",NA,NA,NA,NA,NA,NA,NA,NA,NA,NA,"001198","2023-11-13"
"spinne1",0,0,0,0,NA,NA,NA,NA,"[0.9511185999999725]","[1]","['target_find']",NA,NA,"",NA,NA,NA,NA,NA,NA,NA,NA,NA,NA,"001198","2023-11-13"
"gruppe2",0,1,1,7,NA,NA,NA,NA,"[1.3689107999998669]","[]","[]",NA,NA,"",NA,NA,NA,NA,NA,NA,NA,NA,NA,NA,"001198","2023-11-13"
"spinne2",0,2,2,1,NA,NA,NA,NA,"[1.4037579999994705]","[1]","['target_find']",NA,NA,"",NA,NA,NA,NA,NA,NA,NA,NA,NA,NA,"001198","2023-11-13"
"auto1",0,3,3,12,NA,NA,NA,NA,"[0.9171152999997503]","[1]","['target_find']",NA,NA,"",NA,NA,NA,NA,NA,NA,NA,NA,NA,NA,"001198","2023-11-13"
"zug1",0,4,4,15,NA,NA,NA,NA,"[0.8350583000001279]","[1]","['target_find']",NA,NA,"",NA,NA,NA,NA,NA,NA,NA,NA,NA,NA,"001198","2023-11-13"
"person1",0,5,5,4,NA,NA,NA,NA,"[1.0200463999999556]","[1]","['target_find']",NA,NA,"",NA,NA,NA,NA,NA,NA,NA,NA,NA,NA,"001198","2023-11-13"
"flugzeug1",0,6,6,13,NA,NA,NA,NA,"[0.6018778000006932]","[1]","['target_find']",NA,NA,"",NA,NA,NA,NA,NA,NA,NA,NA,NA,NA,"001198","2023-11-13"
"person2",0,7,7,5,NA,NA,NA,NA,"[0.7845453999998426]","[1]","['target_find']",NA,NA,"",NA,NA,NA,NA,NA,NA,NA,NA,NA,NA,"001198","2023-11-13"
"schiff1",0,8,8,14,NA,NA,NA,NA,"[0.8526117999999769]","[1]","['target_find']",NA,NA,"",NA,NA,NA,NA,NA,NA,NA,NA,NA,NA,"001198","2023-11-13"
"gruppe1",0,9,9,6,NA,NA,NA,NA,"[0.9009158999997453]","[1]","['target_find']",NA,NA,"",NA,NA,NA,NA,NA,NA,NA,NA,NA,NA,"001198","2023-11-13"
"schlange1",0,10,10,2,NA,NA,NA,NA,"[1.0006743000003553]","[1]","['target_find']",NA,NA,"",NA,NA,NA,NA,NA,NA,NA,NA,NA,NA,"001198","2023-11-13"
"schlange2",0,11,11,3,NA,NA,NA,NA,"[1.185410199999751]","[1]","['target_find']",NA,NA,"",NA,NA,NA,NA,NA,NA,NA,NA,NA,NA,"001198","2023-11-13"
"gesicht2",0,12,12,9,NA,NA,NA,NA,"[1.434383799999523]","[1]","['target_find']",NA,NA,"",NA,NA,NA,NA,NA,NA,NA,NA,NA,NA,"001198","2023-11-13"
"gesicht1",0,13,13,8,NA,NA,NA,NA,"[0.9187056999999186]","[1]","['target_find']",NA,NA,"",NA,NA,NA,NA,NA,NA,NA,NA,NA,NA,"001198","2023-11-13"
"gesicht4",0,14,14,11,NA,NA,NA,NA,"[0.5333498999998483]","[1]","['target_find']",NA,NA,"",NA,NA,NA,NA,NA,NA,NA,NA,NA,NA,"001198","2023-11-13"
"gesicht3",0,15,15,10,NA,NA,NA,NA,"[0.5362027000001035]","[1]","['target_find']",NA,NA,"",NA,NA,NA,NA,NA,NA,NA,NA,NA,NA,"001198","2023-11-13"
"zug1",1,0,16,15,NA,NA,NA,NA,"[0.8682300999998915]","[1]","['target_find']",NA,NA,"",NA,NA,NA,NA,NA,NA,NA,NA,NA,NA,"001198","2023-11-13"
"spinne2",1,1,17,1,NA,NA,NA,NA,"[0.9020936000006259]","[1]","['target_find']",NA,NA,"",NA,NA,NA,NA,NA,NA,NA,NA,NA,NA,"001198","2023-11-13"
"auto1",1,2,18,12,NA,NA,NA,NA,"[0.7325695999998061]","[1]","['target_find']",NA,NA,"",NA,NA,NA,NA,NA,NA,NA,NA,NA,NA,"001198","2023-11-13"
"person2",1,3,19,5,NA,NA,NA,NA,"[0.8021139000002222]","[1]","['target_find']",NA,NA,"",NA,NA,NA,NA,NA,NA,NA,NA,NA,NA,"001198","2023-11-13"
"gesicht2",1,4,20,9,NA,NA,NA,NA,"[0.635249300000396]","[1]","['target_find']",NA,NA,"",NA,NA,NA,NA,NA,NA,NA,NA,NA,NA,"001198","2023-11-13"
"gesicht4",1,5,21,11,NA,NA,NA,NA,"[0.9182892999997421]","[1]","['target_find']",NA,NA,"",NA,NA,NA,NA,NA,NA,NA,NA,NA,NA,"001198","2023-11-13"
"person1",1,6,22,4,NA,NA,NA,NA,"[1.20231479999984]","[1]","['target_find']",NA,NA,"",NA,NA,NA,NA,NA,NA,NA,NA,NA,NA,"001198","2023-11-13"
"gesicht1",1,7,23,8,NA,NA,NA,NA,"[0.6848024999999325]","[1]","['target_find']",NA,NA,"",NA,NA,NA,NA,NA,NA,NA,NA,NA,NA,"001198","2023-11-13"
"schlange1",1,8,24,2,NA,NA,NA,NA,"[0.5189082000006238]","[1]","['target_find']",NA,NA,"",NA,NA,NA,NA,NA,NA,NA,NA,NA,NA,"001198","2023-11-13"
"gesicht3",1,9,25,10,NA,NA,NA,NA,"[0.8185534000003827]","[1]","['target_find']",NA,NA,"",NA,NA,NA,NA,NA,NA,NA,NA,NA,NA,"001198","2023-11-13"
"flugzeug1",1,10,26,13,NA,NA,NA,NA,"[0.6198213000006945]","[1]","['target_find']",NA,NA,"",NA,NA,NA,NA,NA,NA,NA,NA,NA,NA,"001198","2023-11-13"
"gruppe1",1,11,27,6,NA,NA,NA,NA,"[1.0523671000000832]","[1]","['target_find']",NA,NA,"",NA,NA,NA,NA,NA,NA,NA,NA,NA,NA,"001198","2023-11-13"
"schlange2",1,12,28,3,NA,NA,NA,NA,"[1.1848223999995753]","[1]","['target_find']",NA,NA,"",NA,NA,NA,NA,NA,NA,NA,NA,NA,NA,"001198","2023-11-13"
"spinne1",1,13,29,0,NA,NA,NA,NA,"[1.9180471000008765]","[1]","['target_find']",NA,NA,"",NA,NA,NA,NA,NA,NA,NA,NA,NA,NA,"001198","2023-11-13"
"schiff1",1,14,30,14,NA,NA,NA,NA,"[1.0027403000003687]","[1]","['target_find']",NA,NA,"",NA,NA,NA,NA,NA,NA,NA,NA,NA,NA,"001198","2023-11-13"
"gruppe2",1,15,31,7,NA,NA,NA,NA,"[0.8860572000003231]","[1]","['target_find']",NA,NA,"",NA,NA,NA,NA,NA,NA,NA,NA,NA,NA,"001198","2023-11-13"
"gesicht2",2,0,32,9,NA,NA,NA,NA,"[0.968954500000109]","[1]","['target_find']",NA,NA,"",NA,NA,NA,NA,NA,NA,NA,NA,NA,NA,"001198","2023-11-13"
"schlange2",2,1,33,3,NA,NA,NA,NA,"[1.750861200000145]","[1]","['target_find']",NA,NA,"",NA,NA,NA,NA,NA,NA,NA,NA,NA,NA,"001198","2023-11-13"
"auto1",2,2,34,12,NA,NA,NA,NA,"[1.4334994000000734]","[1]","['target_find']",NA,NA,"",NA,NA,NA,NA,NA,NA,NA,NA,NA,NA,"001198","2023-11-13"
"spinne2",2,3,35,1,NA,NA,NA,NA,"[0.7186660999996093]","[1]","['target_find']",NA,NA,"",NA,NA,NA,NA,NA,NA,NA,NA,NA,NA,"001198","2023-11-13"
"schlange1",2,4,36,2,NA,NA,NA,NA,"[0.8503733999996257]","[0]","['dis3']",NA,NA,"",NA,NA,NA,NA,NA,NA,NA,NA,NA,NA,"001198","2023-11-13"
"person2",2,5,37,5,NA,NA,NA,NA,"[0.6686890999999378]","[1]","['target_find']",NA,NA,"",NA,NA,NA,NA,NA,NA,NA,NA,NA,NA,"001198","2023-11-13"
"schiff1",2,6,38,14,NA,NA,NA,NA,"[0.6688211000000592]","[1]","['target_find']",NA,NA,"",NA,NA,NA,NA,NA,NA,NA,NA,NA,NA,"001198","2023-11-13"
"zug1",2,7,39,15,NA,NA,NA,NA,"[0.9361084000001938]","[1]","['target_find']",NA,NA,"",NA,NA,NA,NA,NA,NA,NA,NA,NA,NA,"001198","2023-11-13"
"gruppe1",2,8,40,6,NA,NA,NA,NA,"[0.6191224000003785]","[1]","['target_find']",NA,NA,"",NA,NA,NA,NA,NA,NA,NA,NA,NA,NA,"001198","2023-11-13"
"gruppe2",2,9,41,7,NA,NA,NA,NA,"[1.1348713999996107]","[1]","['target_find']",NA,NA,"",NA,NA,NA,NA,NA,NA,NA,NA,NA,NA,"001198","2023-11-13"
"flugzeug1",2,10,42,13,NA,NA,NA,NA,"[1.1177521999998135]","[1]","['target_find']",NA,NA,"",NA,NA,NA,NA,NA,NA,NA,NA,NA,NA,"001198","2023-11-13"
"spinne1",2,11,43,0,NA,NA,NA,NA,"[1.017697400000543]","[1]","['target_find']",NA,NA,"",NA,NA,NA,NA,NA,NA,NA,NA,NA,NA,"001198","2023-11-13"
"gesicht4",2,12,44,11,NA,NA,NA,NA,"[0.7178877000005741]","[1]","['target_find']",NA,NA,"",NA,NA,NA,NA,NA,NA,NA,NA,NA,NA,"001198","2023-11-13"
"person1",2,13,45,4,NA,NA,NA,NA,"[0.6686957000001712]","[1]","['target_find']",NA,NA,"",NA,NA,NA,NA,NA,NA,NA,NA,NA,NA,"001198","2023-11-13"
"gesicht3",2,14,46,10,NA,NA,NA,NA,"[0.918752300000051]","[1]","['target_find']",NA,NA,"",NA,NA,NA,NA,NA,NA,NA,NA,NA,NA,"001198","2023-11-13"
"gesicht1",2,15,47,8,NA,NA,NA,NA,"[0.6170925000005809]","[1]","['target_find']",NA,NA,"",NA,NA,NA,NA,NA,NA,NA,NA,NA,NA,"001198","2023-11-13"
"person1",3,0,48,4,NA,NA,NA,NA,"[0.6839159999999538]","[1]","['target_find']",NA,NA,"",NA,NA,NA,NA,NA,NA,NA,NA,NA,NA,"001198","2023-11-13"
"auto1",3,1,49,12,NA,NA,NA,NA,"[1.6692707000001974]","[1]","['target_find']",NA,NA,"",NA,NA,NA,NA,NA,NA,NA,NA,NA,NA,"001198","2023-11-13"
"person2",3,2,50,5,NA,NA,NA,NA,"[0.5514136000001599]","[1]","['target_find']",NA,NA,"",NA,NA,NA,NA,NA,NA,NA,NA,NA,NA,"001198","2023-11-13"
"spinne1",3,3,51,0,NA,NA,NA,NA,"[0.9513280999999552]","[1]","['target_find']",NA,NA,"",NA,NA,NA,NA,NA,NA,NA,NA,NA,NA,"001198","2023-11-13"
"gruppe2",3,4,52,7,NA,NA,NA,NA,"[0.7337365000003047]","[1]","['target_find']",NA,NA,"",NA,NA,NA,NA,NA,NA,NA,NA,NA,NA,"001198","2023-11-13"
"schlange1",3,5,53,2,NA,NA,NA,NA,"[0.6510017999999036]","[1]","['target_find']",NA,NA,"",NA,NA,NA,NA,NA,NA,NA,NA,NA,NA,"001198","2023-11-13"
"gruppe1",3,6,54,6,NA,NA,NA,NA,"[0.7675736000001052]","[1]","['target_find']",NA,NA,"",NA,NA,NA,NA,NA,NA,NA,NA,NA,NA,"001198","2023-11-13"
"flugzeug1",3,7,55,13,NA,NA,NA,NA,"[1.0187316000001374]","[1]","['target_find']",NA,NA,"",NA,NA,NA,NA,NA,NA,NA,NA,NA,NA,"001198","2023-11-13"
"gesicht4",3,8,56,11,NA,NA,NA,NA,"[0.8021751999995104]","[1]","['target_find']",NA,NA,"",NA,NA,NA,NA,NA,NA,NA,NA,NA,NA,"001198","2023-11-13"
"gesicht2",3,9,57,9,NA,NA,NA,NA,"[0.6682012000001123]","[1]","['target_find']",NA,NA,"",NA,NA,NA,NA,NA,NA,NA,NA,NA,NA,"001198","2023-11-13"
"schlange2",3,10,58,3,NA,NA,NA,NA,"[1.318339399999786]","[1]","['target_find']",NA,NA,"",NA,NA,NA,NA,NA,NA,NA,NA,NA,NA,"001198","2023-11-13"
"gesicht3",3,11,59,10,NA,NA,NA,NA,"[0.9189360000000306]","[1]","['target_find']",NA,NA,"",NA,NA,NA,NA,NA,NA,NA,NA,NA,NA,"001198","2023-11-13"
"zug1",3,12,60,15,NA,NA,NA,NA,"[0.8998568999995769]","[1]","['target_find']",NA,NA,"",NA,NA,NA,NA,NA,NA,NA,NA,NA,NA,"001198","2023-11-13"
"schiff1",3,13,61,14,NA,NA,NA,NA,"[0.9505136999996466]","[1]","['target_find']",NA,NA,"",NA,NA,NA,NA,NA,NA,NA,NA,NA,NA,"001198","2023-11-13"
"gesicht1",3,14,62,8,NA,NA,NA,NA,"[0.7017079000006561]","[1]","['target_find']",NA,NA,"",NA,NA,NA,NA,NA,NA,NA,NA,NA,NA,"001198","2023-11-13"
"spinne2",3,15,63,1,NA,NA,NA,NA,"[0.733476200000041]","[1]","['target_find']",NA,NA,"",NA,NA,NA,NA,NA,NA,NA,NA,NA,NA,"001198","2023-11-13"
"auto1",4,0,64,12,NA,NA,NA,NA,"[1.250267299999905]","[1]","['target_find']",NA,NA,"",NA,NA,NA,NA,NA,NA,NA,NA,NA,NA,"001198","2023-11-13"
"gruppe2",4,1,65,7,NA,NA,NA,NA,"[1.0526721000005637]","[1]","['target_find']",NA,NA,"",NA,NA,NA,NA,NA,NA,NA,NA,NA,NA,"001198","2023-11-13"
"spinne2",4,2,66,1,NA,NA,NA,NA,"[1.2351294000000053]","[1]","['target_find']",NA,NA,"",NA,NA,NA,NA,NA,NA,NA,NA,NA,NA,"001198","2023-11-13"
"schlange1",4,3,67,2,NA,NA,NA,NA,"[0.8521171000002141]","[1]","['target_find']",NA,NA,"",NA,NA,NA,NA,NA,NA,NA,NA,NA,NA,"001198","2023-11-13"
"zug1",4,4,68,15,NA,NA,NA,NA,"[1.1177514000000883]","[1]","['target_find']",NA,NA,"",NA,NA,NA,NA,NA,NA,NA,NA,NA,NA,"001198","2023-11-13"
"gesicht2",4,5,69,9,NA,NA,NA,NA,"[0.686342599999989]","[1]","['target_find']",NA,NA,"",NA,NA,NA,NA,NA,NA,NA,NA,NA,NA,"001198","2023-11-13"
"gesicht3",4,6,70,10,NA,NA,NA,NA,"[0.6836746999997558]","[1]","['target_find']",NA,NA,"",NA,NA,NA,NA,NA,NA,NA,NA,NA,NA,"001198","2023-11-13"
"gesicht4",4,7,71,11,NA,NA,NA,NA,"[0.7024933999991845]","[1]","['target_find']",NA,NA,"",NA,NA,NA,NA,NA,NA,NA,NA,NA,NA,"001198","2023-11-13"
"schlange2",4,8,72,3,NA,NA,NA,NA,"[2.3191765999999916]","[1]","['target_find']",NA,NA,"",NA,NA,NA,NA,NA,NA,NA,NA,NA,NA,"001198","2023-11-13"
"flugzeug1",4,9,73,13,NA,NA,NA,NA,"[1.0010013000000981]","[1]","['target_find']",NA,NA,"",NA,NA,NA,NA,NA,NA,NA,NA,NA,NA,"001198","2023-11-13"
"person2",4,10,74,5,NA,NA,NA,NA,"[0.6691165000002002]","[1]","['target_find']",NA,NA,"",NA,NA,NA,NA,NA,NA,NA,NA,NA,NA,"001198","2023-11-13"
"gesicht1",4,11,75,8,NA,NA,NA,NA,"[0.6021079000001919]","[1]","['target_find']",NA,NA,"",NA,NA,NA,NA,NA,NA,NA,NA,NA,NA,"001198","2023-11-13"
"schiff1",4,12,76,14,NA,NA,NA,NA,"[0.702002399999401]","[1]","['target_find']",NA,NA,"",NA,NA,NA,NA,NA,NA,NA,NA,NA,NA,"001198","2023-11-13"
"gruppe1",4,13,77,6,NA,NA,NA,NA,"[1.018078300000525]","[1]","['target_find']",NA,NA,"",NA,NA,NA,NA,NA,NA,NA,NA,NA,NA,"001198","2023-11-13"
"person1",4,14,78,4,NA,NA,NA,NA,"[0.918675699999767]","[1]","['target_find']",NA,NA,"",NA,NA,NA,NA,NA,NA,NA,NA,NA,NA,"001198","2023-11-13"
"spinne1",4,15,79,0,NA,NA,NA,NA,"[1.1357915000007779]","[1]","['target_find']",NA,NA,"",NA,NA,NA,NA,NA,NA,NA,NA,NA,NA,"001198","2023-11-13"
"",NA,NA,NA,NA,0,0,0,0,"","","","3","1","flugzeug1",NA,NA,NA,NA,NA,NA,NA,NA,NA,NA,"001198","2023-11-13"
"",NA,NA,NA,NA,1,0,1,0,"","","","1","1","gesicht4",NA,NA,NA,NA,NA,NA,NA,NA,NA,NA,"001198","2023-11-13"
"",NA,NA,NA,NA,2,0,2,0,"","","","1","5","schiff1",NA,NA,NA,NA,NA,NA,NA,NA,NA,NA,"001198","2023-11-13"
"",NA,NA,NA,NA,3,0,3,0,"","","","2","1","gruppe1",NA,NA,NA,NA,NA,NA,NA,NA,NA,NA,"001198","2023-11-13"
"",NA,NA,NA,NA,4,0,4,0,"","","","1","4","schlange2",NA,NA,NA,NA,NA,NA,NA,NA,NA,NA,"001198","2023-11-13"
"",NA,NA,NA,NA,NA,NA,NA,NA,"","","",NA,NA,"","20","1","1","1","1","4","5","1","2","3","001198","2023-11-13"
"",NA,NA,NA,NA,NA,NA,NA,NA,"","","",NA,NA,"",NA,NA,NA,NA,NA,NA,NA,NA,NA,NA,"001198","2023-11-13"
"",NA,NA,NA,NA,NA,NA,NA,NA,"","","",NA,NA,"",NA,NA,NA,NA,NA,NA,NA,NA,NA,NA,"001198","2023-11-13"
"gesicht1",0,0,0,8,NA,NA,NA,NA,"[1.5173013997264206]","[1]","['target_find']",NA,NA,"",NA,NA,NA,NA,NA,NA,NA,NA,NA,NA,"001198","2023-11-13"
"person2",0,1,1,5,NA,NA,NA,NA,"[1.0178943001665175]","[1]","['target_find']",NA,NA,"",NA,NA,NA,NA,NA,NA,NA,NA,NA,NA,"001198","2023-11-13"
"zug1",0,2,2,15,NA,NA,NA,NA,"[1.0852873995900154]","[1]","['target_find']",NA,NA,"",NA,NA,NA,NA,NA,NA,NA,NA,NA,NA,"001198","2023-11-13"
"schlange2",0,3,3,3,NA,NA,NA,NA,"[1.5850939000956714]","[1]","['target_find']",NA,NA,"",NA,NA,NA,NA,NA,NA,NA,NA,NA,NA,"001198","2023-11-13"
"gesicht2",0,4,4,9,NA,NA,NA,NA,"[1.117488100193441]","[1]","['target_find']",NA,NA,"",NA,NA,NA,NA,NA,NA,NA,NA,NA,NA,"001198","2023-11-13"
"spinne1",0,5,5,0,NA,NA,NA,NA,"[1.4152325997129083]","[1]","['target_find']",NA,NA,"",NA,NA,NA,NA,NA,NA,NA,NA,NA,NA,"001198","2023-11-13"
"gruppe1",0,6,6,6,NA,NA,NA,NA,"[1.384806000161916]","[1]","['target_find']",NA,NA,"",NA,NA,NA,NA,NA,NA,NA,NA,NA,NA,"001198","2023-11-13"
"schlange1",0,7,7,2,NA,NA,NA,NA,"[0.8504995000548661]","[1]","['target_find']",NA,NA,"",NA,NA,NA,NA,NA,NA,NA,NA,NA,NA,"001198","2023-11-13"
"gesicht3",0,8,8,10,NA,NA,NA,NA,"[0.917280999943614]","[1]","['target_find']",NA,NA,"",NA,NA,NA,NA,NA,NA,NA,NA,NA,NA,"001198","2023-11-13"
"auto1",0,9,9,12,NA,NA,NA,NA,"[1.0358385001309216]","[1]","['target_find']",NA,NA,"",NA,NA,NA,NA,NA,NA,NA,NA,NA,NA,"001198","2023-11-13"
"gesicht4",0,10,10,11,NA,NA,NA,NA,"[0.7353644999675453]","[1]","['target_find']",NA,NA,"",NA,NA,NA,NA,NA,NA,NA,NA,NA,NA,"001198","2023-11-13"
"person1",0,11,11,4,NA,NA,NA,NA,"[0.7328916997648776]","[1]","['target_find']",NA,NA,"",NA,NA,NA,NA,NA,NA,NA,NA,NA,NA,"001198","2023-11-13"
"spinne2",0,12,12,1,NA,NA,NA,NA,"[0.6671682000160217]","[1]","['target_find']",NA,NA,"",NA,NA,NA,NA,NA,NA,NA,NA,NA,NA,"001198","2023-11-13"
"gruppe2",0,13,13,7,NA,NA,NA,NA,"[0.9017362999729812]","[1]","['target_find']",NA,NA,"",NA,NA,NA,NA,NA,NA,NA,NA,NA,NA,"001198","2023-11-13"
"flugzeug1",0,14,14,13,NA,NA,NA,NA,"[1.052260100375861]","[1]","['target_find']",NA,NA,"",NA,NA,NA,NA,NA,NA,NA,NA,NA,NA,"001198","2023-11-13"
"schiff1",0,15,15,14,NA,NA,NA,NA,"[1.250729599967599]","[1]","['target_find']",NA,NA,"",NA,NA,NA,NA,NA,NA,NA,NA,NA,NA,"001198","2023-11-13"
"flugzeug1",1,0,16,13,NA,NA,NA,NA,"[0.8357669999822974]","[1]","['target_find']",NA,NA,"",NA,NA,NA,NA,NA,NA,NA,NA,NA,NA,"001198","2023-11-13"
"person1",1,1,17,4,NA,NA,NA,NA,"[0.7357658999972045]","[1]","['target_find']",NA,NA,"",NA,NA,NA,NA,NA,NA,NA,NA,NA,NA,"001198","2023-11-13"
"spinne2",1,2,18,1,NA,NA,NA,NA,"[0.8188483999110758]","[1]","['target_find']",NA,NA,"",NA,NA,NA,NA,NA,NA,NA,NA,NA,NA,"001198","2023-11-13"
"gesicht2",1,3,19,9,NA,NA,NA,NA,"[0.684882199857384]","[1]","['target_find']",NA,NA,"",NA,NA,NA,NA,NA,NA,NA,NA,NA,NA,"001198","2023-11-13"
"gesicht3",1,4,20,10,NA,NA,NA,NA,"[0.9017519000917673]","[1]","['target_find']",NA,NA,"",NA,NA,NA,NA,NA,NA,NA,NA,NA,NA,"001198","2023-11-13"
"gruppe2",1,5,21,7,NA,NA,NA,NA,"[1.3540183999575675]","[1]","['target_find']",NA,NA,"",NA,NA,NA,NA,NA,NA,NA,NA,NA,NA,"001198","2023-11-13"
"schlange1",1,6,22,2,NA,NA,NA,NA,"[0.7356824004091322]","[1]","['target_find']",NA,NA,"",NA,NA,NA,NA,NA,NA,NA,NA,NA,NA,"001198","2023-11-13"
"spinne1",1,7,23,0,NA,NA,NA,NA,"[0.8686295999214053]","[0]","['dis5']",NA,NA,"",NA,NA,NA,NA,NA,NA,NA,NA,NA,NA,"001198","2023-11-13"
"gesicht4",1,8,24,11,NA,NA,NA,NA,"[0.9851935999467969]","[1]","['target_find']",NA,NA,"",NA,NA,NA,NA,NA,NA,NA,NA,NA,NA,"001198","2023-11-13"
"schiff1",1,9,25,14,NA,NA,NA,NA,"[1.0520234000869095]","[1]","['target_find']",NA,NA,"",NA,NA,NA,NA,NA,NA,NA,NA,NA,NA,"001198","2023-11-13"
"person2",1,10,26,5,NA,NA,NA,NA,"[0.7684759004041553]","[1]","['target_find']",NA,NA,"",NA,NA,NA,NA,NA,NA,NA,NA,NA,NA,"001198","2023-11-13"
"schlange2",1,11,27,3,NA,NA,NA,NA,"[1.3693360001780093]","[1]","['target_find']",NA,NA,"",NA,NA,NA,NA,NA,NA,NA,NA,NA,NA,"001198","2023-11-13"
"auto1",1,12,28,12,NA,NA,NA,NA,"[1.502421600278467]","[1]","['target_find']",NA,NA,"",NA,NA,NA,NA,NA,NA,NA,NA,NA,NA,"001198","2023-11-13"
"gruppe1",1,13,29,6,NA,NA,NA,NA,"[0.9349022000096738]","[1]","['target_find']",NA,NA,"",NA,NA,NA,NA,NA,NA,NA,NA,NA,NA,"001198","2023-11-13"
"gesicht1",1,14,30,8,NA,NA,NA,NA,"[0.9024943998083472]","[1]","['target_find']",NA,NA,"",NA,NA,NA,NA,NA,NA,NA,NA,NA,NA,"001198","2023-11-13"
"zug1",1,15,31,15,NA,NA,NA,NA,"[0.9362600999884307]","[1]","['target_find']",NA,NA,"",NA,NA,NA,NA,NA,NA,NA,NA,NA,NA,"001198","2023-11-13"
"gruppe2",2,0,32,7,NA,NA,NA,NA,"[0.9529267000034451]","[1]","['target_find']",NA,NA,"",NA,NA,NA,NA,NA,NA,NA,NA,NA,NA,"001198","2023-11-13"
"gesicht4",2,1,33,11,NA,NA,NA,NA,"[0.8668585997074842]","[1]","['target_find']",NA,NA,"",NA,NA,NA,NA,NA,NA,NA,NA,NA,NA,"001198","2023-11-13"
"schlange2",2,2,34,3,NA,NA,NA,NA,"[1.102461100090295]","[1]","['target_find']",NA,NA,"",NA,NA,NA,NA,NA,NA,NA,NA,NA,NA,"001198","2023-11-13"
"zug1",2,3,35,15,NA,NA,NA,NA,"[1.0359152001328766]","[1]","['target_find']",NA,NA,"",NA,NA,NA,NA,NA,NA,NA,NA,NA,NA,"001198","2023-11-13"
"spinne1",2,4,36,0,NA,NA,NA,NA,"[1.0847494998015463]","[1]","['target_find']",NA,NA,"",NA,NA,NA,NA,NA,NA,NA,NA,NA,NA,"001198","2023-11-13"
"schlange1",2,5,37,2,NA,NA,NA,NA,"[1.2687766999006271]","[1]","['target_find']",NA,NA,"",NA,NA,NA,NA,NA,NA,NA,NA,NA,NA,"001198","2023-11-13"
"gesicht1",2,6,38,8,NA,NA,NA,NA,"[1.1359190000221133]","[1]","['target_find']",NA,NA,"",NA,NA,NA,NA,NA,NA,NA,NA,NA,NA,"001198","2023-11-13"
"person2",2,7,39,5,NA,NA,NA,NA,"[0.7849092003889382]","[1]","['target_find']",NA,NA,"",NA,NA,NA,NA,NA,NA,NA,NA,NA,NA,"001198","2023-11-13"
"person1",2,8,40,4,NA,NA,NA,NA,"[0.8200904000550508]","[1]","['target_find']",NA,NA,"",NA,NA,NA,NA,NA,NA,NA,NA,NA,NA,"001198","2023-11-13"
"flugzeug1",2,9,41,13,NA,NA,NA,NA,"[0.9353270996361971]","[1]","['target_find']",NA,NA,"",NA,NA,NA,NA,NA,NA,NA,NA,NA,NA,"001198","2023-11-13"
"auto1",2,10,42,12,NA,NA,NA,NA,"[0.8173505999147892]","[1]","['target_find']",NA,NA,"",NA,NA,NA,NA,NA,NA,NA,NA,NA,NA,"001198","2023-11-13"
"gesicht2",2,11,43,9,NA,NA,NA,NA,"[0.9860355998389423]","[1]","['target_find']",NA,NA,"",NA,NA,NA,NA,NA,NA,NA,NA,NA,NA,"001198","2023-11-13"
"gesicht3",2,12,44,10,NA,NA,NA,NA,"[0.8366266996599734]","[1]","['target_find']",NA,NA,"",NA,NA,NA,NA,NA,NA,NA,NA,NA,NA,"001198","2023-11-13"
"gruppe1",2,13,45,6,NA,NA,NA,NA,"[0.8519707997329533]","[1]","['target_find']",NA,NA,"",NA,NA,NA,NA,NA,NA,NA,NA,NA,NA,"001198","2023-11-13"
"schiff1",2,14,46,14,NA,NA,NA,NA,"[1.0169208999723196]","[1]","['target_find']",NA,NA,"",NA,NA,NA,NA,NA,NA,NA,NA,NA,NA,"001198","2023-11-13"
"spinne2",2,15,47,1,NA,NA,NA,NA,"[1.1347652999684215]","[1]","['target_find']",NA,NA,"",NA,NA,NA,NA,NA,NA,NA,NA,NA,NA,"001198","2023-11-13"
"schlange2",3,0,48,3,NA,NA,NA,NA,"[1.4187110997736454]","[1]","['target_find']",NA,NA,"",NA,NA,NA,NA,NA,NA,NA,NA,NA,NA,"001198","2023-11-13"
"person1",3,1,49,4,NA,NA,NA,NA,"[1.2511303997598588]","[1]","['target_find']",NA,NA,"",NA,NA,NA,NA,NA,NA,NA,NA,NA,NA,"001198","2023-11-13"
"spinne2",3,2,50,1,NA,NA,NA,NA,"[0.9679038999602199]","[1]","['target_find']",NA,NA,"",NA,NA,NA,NA,NA,NA,NA,NA,NA,NA,"001198","2023-11-13"
"flugzeug1",3,3,51,13,NA,NA,NA,NA,"[0.9681147998198867]","[1]","['target_find']",NA,NA,"",NA,NA,NA,NA,NA,NA,NA,NA,NA,NA,"001198","2023-11-13"
"gesicht4",3,4,52,11,NA,NA,NA,NA,"[0.9849549001082778]","[1]","['target_find']",NA,NA,"",NA,NA,NA,NA,NA,NA,NA,NA,NA,NA,"001198","2023-11-13"
"gesicht2",3,5,53,9,NA,NA,NA,NA,"[0.8175843004137278]","[1]","['target_find']",NA,NA,"",NA,NA,NA,NA,NA,NA,NA,NA,NA,NA,"001198","2023-11-13"
"zug1",3,6,54,15,NA,NA,NA,NA,"[1.9348503001965582]","[1]","['target_find']",NA,NA,"",NA,NA,NA,NA,NA,NA,NA,NA,NA,NA,"001198","2023-11-13"
"gruppe1",3,7,55,6,NA,NA,NA,NA,"[0.8193144998513162]","[1]","['target_find']",NA,NA,"",NA,NA,NA,NA,NA,NA,NA,NA,NA,NA,"001198","2023-11-13"
"auto1",3,8,56,12,NA,NA,NA,NA,"[1.0023525999858975]","[1]","['target_find']",NA,NA,"",NA,NA,NA,NA,NA,NA,NA,NA,NA,NA,"001198","2023-11-13"
"schlange1",3,9,57,2,NA,NA,NA,NA,"[1.5833831997588277]","[1]","['target_find']",NA,NA,"",NA,NA,NA,NA,NA,NA,NA,NA,NA,NA,"001198","2023-11-13"
"gruppe2",3,10,58,7,NA,NA,NA,NA,"[0.8698391001671553]","[1]","['target_find']",NA,NA,"",NA,NA,NA,NA,NA,NA,NA,NA,NA,NA,"001198","2023-11-13"
"gesicht1",3,11,59,8,NA,NA,NA,NA,"[0.6864506001584232]","[1]","['target_find']",NA,NA,"",NA,NA,NA,NA,NA,NA,NA,NA,NA,NA,"001198","2023-11-13"
"schiff1",3,12,60,14,NA,NA,NA,NA,"[1.0194481001235545]","[]","[]",NA,NA,"",NA,NA,NA,NA,NA,NA,NA,NA,NA,NA,"001198","2023-11-13"
"person2",3,13,61,5,NA,NA,NA,NA,"[1.018695100210607]","[1]","['target_find']",NA,NA,"",NA,NA,NA,NA,NA,NA,NA,NA,NA,NA,"001198","2023-11-13"
"spinne1",3,14,62,0,NA,NA,NA,NA,"[1.1354352002963424]","[1]","['target_find']",NA,NA,"",NA,NA,NA,NA,NA,NA,NA,NA,NA,NA,"001198","2023-11-13"
"gesicht3",3,15,63,10,NA,NA,NA,NA,"[1.0024835001677275]","[1]","['target_find']",NA,NA,"",NA,NA,NA,NA,NA,NA,NA,NA,NA,NA,"001198","2023-11-13"
"gruppe1",4,0,64,6,NA,NA,NA,NA,"[1.1177067002281547]","[1]","['target_find']",NA,NA,"",NA,NA,NA,NA,NA,NA,NA,NA,NA,NA,"001198","2023-11-13"
"gesicht1",4,1,65,8,NA,NA,NA,NA,"[1.4508424000814557]","[1]","['target_find']",NA,NA,"",NA,NA,NA,NA,NA,NA,NA,NA,NA,NA,"001198","2023-11-13"
"person2",4,2,66,5,NA,NA,NA,NA,"[0.6854413999244571]","[1]","['target_find']",NA,NA,"",NA,NA,NA,NA,NA,NA,NA,NA,NA,NA,"001198","2023-11-13"
"spinne2",4,3,67,1,NA,NA,NA,NA,"[0.8342166002839804]","[1]","['target_find']",NA,NA,"",NA,NA,NA,NA,NA,NA,NA,NA,NA,NA,"001198","2023-11-13"
"spinne1",4,4,68,0,NA,NA,NA,NA,"[1.051558599807322]","[1]","['target_find']",NA,NA,"",NA,NA,NA,NA,NA,NA,NA,NA,NA,NA,"001198","2023-11-13"
"flugzeug1",4,5,69,13,NA,NA,NA,NA,"[1.654008099809289]","[1]","['target_find']",NA,NA,"",NA,NA,NA,NA,NA,NA,NA,NA,NA,NA,"001198","2023-11-13"
"gesicht4",4,6,70,11,NA,NA,NA,NA,"[0.8694548001512885]","[1]","['target_find']",NA,NA,"",NA,NA,NA,NA,NA,NA,NA,NA,NA,NA,"001198","2023-11-13"
"schlange2",4,7,71,3,NA,NA,NA,NA,"[0.7506357999518514]","[1]","['target_find']",NA,NA,"",NA,NA,NA,NA,NA,NA,NA,NA,NA,NA,"001198","2023-11-13"
"schlange1",4,8,72,2,NA,NA,NA,NA,"[0.7504977998323739]","[1]","['target_find']",NA,NA,"",NA,NA,NA,NA,NA,NA,NA,NA,NA,NA,"001198","2023-11-13"
"auto1",4,9,73,12,NA,NA,NA,NA,"[0.7682198998518288]","[1]","['target_find']",NA,NA,"",NA,NA,NA,NA,NA,NA,NA,NA,NA,NA,"001198","2023-11-13"
"person1",4,10,74,4,NA,NA,NA,NA,"[0.9341958998702466]","[1]","['target_find']",NA,NA,"",NA,NA,NA,NA,NA,NA,NA,NA,NA,NA,"001198","2023-11-13"
"schiff1",4,11,75,14,NA,NA,NA,NA,"[1.335661199875176]","[1]","['target_find']",NA,NA,"",NA,NA,NA,NA,NA,NA,NA,NA,NA,NA,"001198","2023-11-13"
"gesicht2",4,12,76,9,NA,NA,NA,NA,"[0.7522149002179503]","[1]","['target_find']",NA,NA,"",NA,NA,NA,NA,NA,NA,NA,NA,NA,NA,"001198","2023-11-13"
"zug1",4,13,77,15,NA,NA,NA,NA,"[1.017740000039339]","[1]","['target_find']",NA,NA,"",NA,NA,NA,NA,NA,NA,NA,NA,NA,NA,"001198","2023-11-13"
"gruppe2",4,14,78,7,NA,NA,NA,NA,"[0.8691352000460029]","[1]","['target_find']",NA,NA,"",NA,NA,NA,NA,NA,NA,NA,NA,NA,NA,"001198","2023-11-13"
"gesicht3",4,15,79,10,NA,NA,NA,NA,"[0.6527756997384131]","[1]","['target_find']",NA,NA,"",NA,NA,NA,NA,NA,NA,NA,NA,NA,NA,"001198","2023-11-13"
"",NA,NA,NA,NA,0,0,0,0,"","","","2","1","gesicht2",NA,NA,NA,NA,NA,NA,NA,NA,NA,NA,"001198","2023-11-13"
"",NA,NA,NA,NA,1,0,1,0,"","","","1","2","schiff1",NA,NA,NA,NA,NA,NA,NA,NA,NA,NA,"001198","2023-11-13"
"",NA,NA,NA,NA,2,0,2,0,"","","","2","2","flugzeug1",NA,NA,NA,NA,NA,NA,NA,NA,NA,NA,"001198","2023-11-13"
"",NA,NA,NA,NA,3,0,3,0,"","","","1","4","spinne2",NA,NA,NA,NA,NA,NA,NA,NA,NA,NA,"001198","2023-11-13"
"",NA,NA,NA,NA,4,0,4,0,"","","","2","1","auto1",NA,NA,NA,NA,NA,NA,NA,NA,NA,NA,"001198","2023-11-13"
"",NA,NA,NA,NA,NA,NA,NA,NA,"","","",NA,NA,"","20","1","3","2","4","3","5","2","3","3","001198","2023-11-13"
"",NA,NA,NA,NA,NA,NA,NA,NA,"","","",NA,NA,"",NA,NA,NA,NA,NA,NA,NA,NA,NA,NA,"001198","2023-11-13"
"",NA,NA,NA,NA,NA,NA,NA,NA,"","","",NA,NA,"",NA,NA,NA,NA,NA,NA,NA,NA,NA,NA,"001198","2023-11-13"
"gruppe2",0,0,0,7,NA,NA,NA,NA,"[1.8843851999845356]","[1]","['target_find']",NA,NA,"",NA,NA,NA,NA,NA,NA,NA,NA,NA,NA,"001198","2023-11-13"
"gesicht1",0,1,1,8,NA,NA,NA,NA,"[0.9509806999994908]","[1]","['target_find']",NA,NA,"",NA,NA,NA,NA,NA,NA,NA,NA,NA,NA,"001198","2023-11-13"
"zug1",0,2,2,15,NA,NA,NA,NA,"[0.9023824000032619]","[1]","['target_find']",NA,NA,"",NA,NA,NA,NA,NA,NA,NA,NA,NA,NA,"001198","2023-11-13"
"person1",0,3,3,4,NA,NA,NA,NA,"[1.3021069999958854]","[1]","['target_find']",NA,NA,"",NA,NA,NA,NA,NA,NA,NA,NA,NA,NA,"001198","2023-11-13"
"spinne2",0,4,4,1,NA,NA,NA,NA,"[0.6020459999854211]","[1]","['target_find']",NA,NA,"",NA,NA,NA,NA,NA,NA,NA,NA,NA,NA,"001198","2023-11-13"
"schlange1",0,5,5,2,NA,NA,NA,NA,"[1.2668542999890633]","[1]","['target_find']",NA,NA,"",NA,NA,NA,NA,NA,NA,NA,NA,NA,NA,"001198","2023-11-13"
"gesicht4",0,6,6,11,NA,NA,NA,NA,"[0.7510336999839637]","[1]","['target_find']",NA,NA,"",NA,NA,NA,NA,NA,NA,NA,NA,NA,NA,"001198","2023-11-13"
"schlange2",0,7,7,3,NA,NA,NA,NA,"[0.7523495999921579]","[1]","['target_find']",NA,NA,"",NA,NA,NA,NA,NA,NA,NA,NA,NA,NA,"001198","2023-11-13"
"schiff1",0,8,8,14,NA,NA,NA,NA,"[1.2527671999996528]","[1]","['target_find']",NA,NA,"",NA,NA,NA,NA,NA,NA,NA,NA,NA,NA,"001198","2023-11-13"
"gesicht2",0,9,9,9,NA,NA,NA,NA,"[0.8359605000005104]","[1]","['target_find']",NA,NA,"",NA,NA,NA,NA,NA,NA,NA,NA,NA,NA,"001198","2023-11-13"
"spinne1",0,10,10,0,NA,NA,NA,NA,"[0.7351865999808069]","[1]","['target_find']",NA,NA,"",NA,NA,NA,NA,NA,NA,NA,NA,NA,NA,"001198","2023-11-13"
"flugzeug1",0,11,11,13,NA,NA,NA,NA,"[0.4858202000032179]","[1]","['target_find']",NA,NA,"",NA,NA,NA,NA,NA,NA,NA,NA,NA,NA,"001198","2023-11-13"
"person2",0,12,12,5,NA,NA,NA,NA,"[0.550929899996845]","[1]","['target_find']",NA,NA,"",NA,NA,NA,NA,NA,NA,NA,NA,NA,NA,"001198","2023-11-13"
"auto1",0,13,13,12,NA,NA,NA,NA,"[0.7692068000033032]","[1]","['target_find']",NA,NA,"",NA,NA,NA,NA,NA,NA,NA,NA,NA,NA,"001198","2023-11-13"
"gesicht3",0,14,14,10,NA,NA,NA,NA,"[0.75182780000614]","[1]","['target_find']",NA,NA,"",NA,NA,NA,NA,NA,NA,NA,NA,NA,NA,"001198","2023-11-13"
"gruppe1",0,15,15,6,NA,NA,NA,NA,"[0.9012507000006735]","[1]","['target_find']",NA,NA,"",NA,NA,NA,NA,NA,NA,NA,NA,NA,NA,"001198","2023-11-13"
"gesicht2",1,0,16,9,NA,NA,NA,NA,"[0.7682627000031061]","[1]","['target_find']",NA,NA,"",NA,NA,NA,NA,NA,NA,NA,NA,NA,NA,"001198","2023-11-13"
"gesicht1",1,1,17,8,NA,NA,NA,NA,"[0.901773299992783]","[1]","['target_find']",NA,NA,"",NA,NA,NA,NA,NA,NA,NA,NA,NA,NA,"001198","2023-11-13"
"schiff1",1,2,18,14,NA,NA,NA,NA,"[]","[]","[]",NA,NA,"",NA,NA,NA,NA,NA,NA,NA,NA,NA,NA,"001198","2023-11-13"
"gesicht3",1,3,19,10,NA,NA,NA,NA,"[0.9194904000032693]","[1]","['target_find']",NA,NA,"",NA,NA,NA,NA,NA,NA,NA,NA,NA,NA,"001198","2023-11-13"
"spinne2",1,4,20,1,NA,NA,NA,NA,"[0.6505061000061687]","[1]","['target_find']",NA,NA,"",NA,NA,NA,NA,NA,NA,NA,NA,NA,NA,"001198","2023-11-13"
"gesicht4",1,5,21,11,NA,NA,NA,NA,"[0.6182655000011437]","[1]","['target_find']",NA,NA,"",NA,NA,NA,NA,NA,NA,NA,NA,NA,NA,"001198","2023-11-13"
"auto1",1,6,22,12,NA,NA,NA,NA,"[0.667232999985572]","[1]","['target_find']",NA,NA,"",NA,NA,NA,NA,NA,NA,NA,NA,NA,NA,"001198","2023-11-13"
"spinne1",1,7,23,0,NA,NA,NA,NA,"[2.1855836999893654]","[1]","['target_find']",NA,NA,"",NA,NA,NA,NA,NA,NA,NA,NA,NA,NA,"001198","2023-11-13"
"zug1",1,8,24,15,NA,NA,NA,NA,"[1.6529168999986723]","[1]","['target_find']",NA,NA,"",NA,NA,NA,NA,NA,NA,NA,NA,NA,NA,"001198","2023-11-13"
"flugzeug1",1,9,25,13,NA,NA,NA,NA,"[1.0349281000089832]","[1]","['target_find']",NA,NA,"",NA,NA,NA,NA,NA,NA,NA,NA,NA,NA,"001198","2023-11-13"
"schlange2",1,10,26,3,NA,NA,NA,NA,"[1.3696857999893837]","[1]","['target_find']",NA,NA,"",NA,NA,NA,NA,NA,NA,NA,NA,NA,NA,"001198","2023-11-13"
"schlange1",1,11,27,2,NA,NA,NA,NA,"[1.1672381999960635]","[1]","['target_find']",NA,NA,"",NA,NA,NA,NA,NA,NA,NA,NA,NA,NA,"001198","2023-11-13"
"person1",1,12,28,4,NA,NA,NA,NA,"[0.7844743000168819]","[1]","['target_find']",NA,NA,"",NA,NA,NA,NA,NA,NA,NA,NA,NA,NA,"001198","2023-11-13"
"gruppe2",1,13,29,7,NA,NA,NA,NA,"[1.2344084000214934]","[1]","['target_find']",NA,NA,"",NA,NA,NA,NA,NA,NA,NA,NA,NA,NA,"001198","2023-11-13"
"person2",1,14,30,5,NA,NA,NA,NA,"[0.8850831000017934]","[1]","['target_find']",NA,NA,"",NA,NA,NA,NA,NA,NA,NA,NA,NA,NA,"001198","2023-11-13"
"gruppe1",1,15,31,6,NA,NA,NA,NA,"[0.7352430000028107]","[1]","['target_find']",NA,NA,"",NA,NA,NA,NA,NA,NA,NA,NA,NA,NA,"001198","2023-11-13"
"schlange1",2,0,32,2,NA,NA,NA,NA,"[0.5185853999864776]","[1]","['target_find']",NA,NA,"",NA,NA,NA,NA,NA,NA,NA,NA,NA,NA,"001198","2023-11-13"
"schiff1",2,1,33,14,NA,NA,NA,NA,"[0.7849229999992531]","[1]","['target_find']",NA,NA,"",NA,NA,NA,NA,NA,NA,NA,NA,NA,NA,"001198","2023-11-13"
"person1",2,2,34,4,NA,NA,NA,NA,"[1.1356511999911163]","[1]","['target_find']",NA,NA,"",NA,NA,NA,NA,NA,NA,NA,NA,NA,NA,"001198","2023-11-13"
"gesicht3",2,3,35,10,NA,NA,NA,NA,"[0.7015612999966834]","[1]","['target_find']",NA,NA,"",NA,NA,NA,NA,NA,NA,NA,NA,NA,NA,"001198","2023-11-13"
"flugzeug1",2,4,36,13,NA,NA,NA,NA,"[1.4516306000004988]","[1]","['target_find']",NA,NA,"",NA,NA,NA,NA,NA,NA,NA,NA,NA,NA,"001198","2023-11-13"
"spinne2",2,5,37,1,NA,NA,NA,NA,"[1.6672865999862552]","[1]","['target_find']",NA,NA,"",NA,NA,NA,NA,NA,NA,NA,NA,NA,NA,"001198","2023-11-13"
"gruppe2",2,6,38,7,NA,NA,NA,NA,"[1.9026917000010144]","[1]","['target_find']",NA,NA,"",NA,NA,NA,NA,NA,NA,NA,NA,NA,NA,"001198","2023-11-13"
"zug1",2,7,39,15,NA,NA,NA,NA,"[0.984993799997028]","[1]","['target_find']",NA,NA,"",NA,NA,NA,NA,NA,NA,NA,NA,NA,NA,"001198","2023-11-13"
"schlange2",2,8,40,3,NA,NA,NA,NA,"[2.9359547000203747]","[1]","['target_find']",NA,NA,"",NA,NA,NA,NA,NA,NA,NA,NA,NA,NA,"001198","2023-11-13"
"person2",2,9,41,5,NA,NA,NA,NA,"[0.8840945000119973]","[1]","['target_find']",NA,NA,"",NA,NA,NA,NA,NA,NA,NA,NA,NA,NA,"001198","2023-11-13"
"gesicht1",2,10,42,8,NA,NA,NA,NA,"[0.9357726000016555]","[1]","['target_find']",NA,NA,"",NA,NA,NA,NA,NA,NA,NA,NA,NA,NA,"001198","2023-11-13"
"gesicht2",2,11,43,9,NA,NA,NA,NA,"[2.102367999992566]","[1]","['target_find']",NA,NA,"",NA,NA,NA,NA,NA,NA,NA,NA,NA,NA,"001198","2023-11-13"
"spinne1",2,12,44,0,NA,NA,NA,NA,"[1.5343967999797314]","[1]","['target_find']",NA,NA,"",NA,NA,NA,NA,NA,NA,NA,NA,NA,NA,"001198","2023-11-13"
